uid,trial,scenario,history,witness,physical,TimedOut,group,rating_type,rating,rt
20000,1,8,relatedPrior,noWitness,DNA,F,mri,rating,37,2.012
20000,1,8,relatedPrior,noWitness,DNA,F,mri,rate_punishment,66,4.727
20000,2,1,unrelatedPrior,noWitness,noPhys,F,mri,rating,0,1.497
20000,2,1,unrelatedPrior,noWitness,noPhys,F,mri,rate_punishment,63,4.562
20000,3,6,noPrior,noWitness,noPhys,F,mri,rating,0,1.246
20000,3,6,noPrior,noWitness,noPhys,F,mri,rate_punishment,35,3.103
20000,4,19,unrelatedPrior,noWitness,nonDNA,F,mri,rating,45,3.18
20000,4,19,unrelatedPrior,noWitness,nonDNA,F,mri,rate_punishment,54,3.395
20000,5,3,noPrior,isWitness,nonDNA,F,mri,rating,85,2.912
20000,5,3,noPrior,isWitness,nonDNA,F,mri,rate_punishment,41,3.695
20000,6,28,unrelatedPrior,noWitness,DNA,F,mri,rating,55,3.478
20000,6,28,unrelatedPrior,noWitness,DNA,F,mri,rate_punishment,86,4.695
20000,7,33,relatedPrior,isWitness,DNA,F,mri,rating,56,4.214
20000,7,33,relatedPrior,isWitness,DNA,F,mri,rate_punishment,41,2.475
20000,8,23,noPrior,noWitness,nonDNA,F,mri,rating,61,2.629
20000,8,23,noPrior,noWitness,nonDNA,F,mri,rate_punishment,90,2.978
20000,9,5,unrelatedPrior,isWitness,nonDNA,F,mri,rating,91,3.366
20000,9,5,unrelatedPrior,isWitness,nonDNA,F,mri,rate_punishment,76,3.278
20000,10,26,unrelatedPrior,isWitness,nonDNA,F,mri,rating,91,2.947
20000,10,26,unrelatedPrior,isWitness,nonDNA,F,mri,rate_punishment,88,3.524
20000,11,12,relatedPrior,isWitness,nonDNA,F,mri,rating,59,4.297
20000,11,12,relatedPrior,isWitness,nonDNA,F,mri,rate_punishment,45,3.744
20000,12,29,unrelatedPrior,noWitness,noPhys,F,mri,rating,40,4.063
20000,12,29,unrelatedPrior,noWitness,noPhys,F,mri,rate_punishment,56,4.378
20000,13,2,noPrior,isWitness,nonDNA,F,mri,rating,82,2.228
20000,13,2,noPrior,isWitness,nonDNA,F,mri,rate_punishment,50,2.126
20000,14,17,unrelatedPrior,isWitness,noPhys,F,mri,rating,70,3.594
20000,14,17,unrelatedPrior,isWitness,noPhys,F,mri,rate_punishment,84,3.044
20000,15,24,relatedPrior,isWitness,noPhys,F,mri,rating,57,3.371
20000,15,24,relatedPrior,isWitness,noPhys,F,mri,rate_punishment,57,4.741
20000,16,7,unrelatedPrior,isWitness,nonDNA,F,mri,rating,86,2.862
20000,16,7,unrelatedPrior,isWitness,nonDNA,F,mri,rate_punishment,70,4.493
20000,17,30,relatedPrior,noWitness,DNA,F,mri,rating,71,3.478
20000,17,30,relatedPrior,noWitness,DNA,F,mri,rate_punishment,61,2.828
20000,18,10,unrelatedPrior,isWitness,DNA,F,mri,rating,77,3.013
20000,18,10,unrelatedPrior,isWitness,DNA,F,mri,rate_punishment,74,2.811
20000,19,21,noPrior,noWitness,DNA,T,mri,rating,71,6
20000,19,21,noPrior,noWitness,DNA,T,mri,rate_punishment,88,3.495
20000,20,20,unrelatedPrior,noWitness,noPhys,T,mri,rating,0,6
20000,20,20,unrelatedPrior,noWitness,noPhys,T,mri,rate_punishment,100,2.38
20000,21,16,relatedPrior,noWitness,nonDNA,F,mri,rating,77,2.579
20000,21,16,relatedPrior,noWitness,nonDNA,F,mri,rate_punishment,96,3.559
20000,22,22,noPrior,noWitness,nonDNA,F,mri,rating,57,2.713
20000,22,22,noPrior,noWitness,nonDNA,F,mri,rate_punishment,41,2.561
20000,23,32,noPrior,noWitness,DNA,F,mri,rating,74,3.78
20000,23,32,noPrior,noWitness,DNA,F,mri,rate_punishment,69,2.594
20000,24,27,unrelatedPrior,noWitness,DNA,F,mri,rating,81,2.566
20000,24,27,unrelatedPrior,noWitness,DNA,F,mri,rate_punishment,46,3.693
20000,25,18,relatedPrior,noWitness,DNA,F,mri,rating,47,4.046
20000,25,18,relatedPrior,noWitness,DNA,F,mri,rate_punishment,41,3.579
20000,26,31,noPrior,noWitness,nonDNA,F,mri,rating,64,2.362
20000,26,31,noPrior,noWitness,nonDNA,F,mri,rate_punishment,62,2.364
20000,27,9,relatedPrior,noWitness,noPhys,F,mri,rating,68,2.163
20000,27,9,relatedPrior,noWitness,noPhys,F,mri,rate_punishment,63,2.459
20000,28,25,noPrior,noWitness,noPhys,F,mri,rating,43,3.165
20000,28,25,noPrior,noWitness,noPhys,F,mri,rate_punishment,54,3.562
20000,29,11,unrelatedPrior,isWitness,noPhys,F,mri,rating,61,3.444
20000,29,11,unrelatedPrior,isWitness,noPhys,F,mri,rate_punishment,73,3.993
20000,30,14,unrelatedPrior,isWitness,DNA,F,mri,rating,93,2.746
20000,30,14,unrelatedPrior,isWitness,DNA,F,mri,rate_punishment,79,2.644
20000,31,15,unrelatedPrior,isWitness,DNA,F,mri,rating,58,2.496
20000,31,15,unrelatedPrior,isWitness,DNA,F,mri,rate_punishment,39,3.026
20000,32,4,noPrior,isWitness,DNA,F,mri,rating,61,3.646
20000,32,4,noPrior,isWitness,DNA,F,mri,rate_punishment,56,4.211
20000,33,13,unrelatedPrior,noWitness,nonDNA,F,mri,rating,58,3.628
20000,33,13,unrelatedPrior,noWitness,nonDNA,F,mri,rate_punishment,76,2.377
20007,1,25,unrelatedPrior,noWitness,DNA,F,mri,rating,56,5.493
20007,1,25,unrelatedPrior,noWitness,DNA,F,mri,rate_punishment,41,5.543
20007,2,12,relatedPrior,noWitness,nonDNA,F,mri,rating,68,3.765
20007,2,12,relatedPrior,noWitness,nonDNA,F,mri,rate_punishment,0,2.594
20007,3,26,relatedPrior,isWitness,DNA,T,mri,rating,88,3.464
20007,3,26,relatedPrior,isWitness,DNA,T,mri,rate_punishment,91,6
20007,4,19,unrelatedPrior,isWitness,DNA,F,mri,rating,65,2.813
20007,4,19,unrelatedPrior,isWitness,DNA,F,mri,rate_punishment,58,3.428
20007,5,18,noPrior,noWitness,nonDNA,F,mri,rating,28,3.112
20007,5,18,noPrior,noWitness,nonDNA,F,mri,rate_punishment,59,4.164
20007,6,16,relatedPrior,isWitness,nonDNA,F,mri,rating,41,4.109
20007,6,16,relatedPrior,isWitness,nonDNA,F,mri,rate_punishment,41,4.145
20007,7,22,relatedPrior,isWitness,DNA,F,mri,rating,30,2.461
20007,7,22,relatedPrior,isWitness,DNA,F,mri,rate_punishment,45,2.693
20007,8,17,relatedPrior,isWitness,nonDNA,T,mri,rating,0,6
20007,8,17,relatedPrior,isWitness,nonDNA,T,mri,rate_punishment,48,3.745
20007,9,7,relatedPrior,noWitness,noPhys,F,mri,rating,17,2.212
20007,9,7,relatedPrior,noWitness,noPhys,F,mri,rate_punishment,78,3.243
20007,10,30,relatedPrior,isWitness,noPhys,F,mri,rating,58,4.214
20007,10,30,relatedPrior,isWitness,noPhys,F,mri,rate_punishment,74,4.443
20007,11,33,noPrior,isWitness,noPhys,F,mri,rating,63,4.33
20007,11,33,noPrior,isWitness,noPhys,F,mri,rate_punishment,61,3.976
20007,12,1,relatedPrior,noWitness,DNA,F,mri,rating,59,4.7
20007,12,1,relatedPrior,noWitness,DNA,F,mri,rate_punishment,37,4.726
20007,13,10,noPrior,noWitness,nonDNA,F,mri,rating,67,3.575
20007,13,10,noPrior,noWitness,nonDNA,F,mri,rate_punishment,82,4.884
20007,14,32,unrelatedPrior,noWitness,nonDNA,F,mri,rating,69,3.38
20007,14,32,unrelatedPrior,noWitness,nonDNA,F,mri,rate_punishment,97,4.928
20007,15,6,noPrior,isWitness,DNA,F,mri,rating,75,3.196
20007,15,6,noPrior,isWitness,DNA,F,mri,rate_punishment,19,2.909
20007,16,21,relatedPrior,noWitness,noPhys,F,mri,rating,25,2.828
20007,16,21,relatedPrior,noWitness,noPhys,F,mri,rate_punishment,87,4.71
20007,17,5,noPrior,noWitness,DNA,F,mri,rating,68,4.697
20007,17,5,noPrior,noWitness,DNA,F,mri,rate_punishment,51,2.777
20007,18,27,relatedPrior,noWitness,noPhys,F,mri,rating,10,2.079
20007,18,27,relatedPrior,noWitness,noPhys,F,mri,rate_punishment,26,3.439
20007,19,2,unrelatedPrior,noWitness,nonDNA,F,mri,rating,35,5.312
20007,19,2,unrelatedPrior,noWitness,nonDNA,F,mri,rate_punishment,33,5.128
20007,20,24,unrelatedPrior,isWitness,DNA,F,mri,rating,50,3.366
20007,20,24,unrelatedPrior,isWitness,DNA,F,mri,rate_punishment,40,3.294
20007,21,20,unrelatedPrior,isWitness,noPhys,T,mri,rating,9,2.196
20007,21,20,unrelatedPrior,isWitness,noPhys,T,mri,rate_punishment,64,6
20007,22,15,unrelatedPrior,noWitness,noPhys,F,mri,rating,19,2.646
20007,22,15,unrelatedPrior,noWitness,noPhys,F,mri,rate_punishment,44,5.126
20007,23,8,relatedPrior,isWitness,nonDNA,F,mri,rating,75,3.43
20007,23,8,relatedPrior,isWitness,nonDNA,F,mri,rate_punishment,54,3.193
20007,24,29,unrelatedPrior,noWitness,DNA,F,mri,rating,56,2.365
20007,24,29,unrelatedPrior,noWitness,DNA,F,mri,rate_punishment,46,4.593
20007,25,11,relatedPrior,noWitness,DNA,F,mri,rating,72,4.561
20007,25,11,relatedPrior,noWitness,DNA,F,mri,rate_punishment,66,3.41
20007,26,3,unrelatedPrior,noWitness,noPhys,F,mri,rating,9,1.895
20007,26,3,unrelatedPrior,noWitness,noPhys,F,mri,rate_punishment,38,3.345
20007,27,4,noPrior,noWitness,nonDNA,F,mri,rating,48,1.928
20007,27,4,noPrior,noWitness,nonDNA,F,mri,rate_punishment,50,3.227
20007,28,28,relatedPrior,isWitness,noPhys,F,mri,rating,63,2.896
20007,28,28,relatedPrior,isWitness,noPhys,F,mri,rate_punishment,94,4.276
20007,29,14,relatedPrior,isWitness,nonDNA,F,mri,rating,88,2.779
20007,29,14,relatedPrior,isWitness,nonDNA,F,mri,rate_punishment,82,3.944
20007,30,9,noPrior,noWitness,nonDNA,F,mri,rating,53,2.06
20007,30,9,noPrior,noWitness,nonDNA,F,mri,rate_punishment,47,2.843
20007,31,13,unrelatedPrior,noWitness,noPhys,F,mri,rating,45,3.512
20007,31,13,unrelatedPrior,noWitness,noPhys,F,mri,rate_punishment,30,2.826
20007,32,31,noPrior,noWitness,noPhys,T,mri,rating,20,6
20007,32,31,noPrior,noWitness,noPhys,T,mri,rate_punishment,53,4.877
20007,33,23,unrelatedPrior,noWitness,noPhys,F,mri,rating,28,2.911
20007,33,23,unrelatedPrior,noWitness,noPhys,F,mri,rate_punishment,94,2.653
19968,1,29,unrelatedPrior,isWitness,DNA,T,mri,rating,80,4.195
19968,1,29,unrelatedPrior,isWitness,DNA,T,mri,rate_punishment,39,6
19968,2,24,relatedPrior,isWitness,nonDNA,F,mri,rating,100,2.13
19968,2,24,relatedPrior,isWitness,nonDNA,F,mri,rate_punishment,42,2.111
19968,3,22,unrelatedPrior,noWitness,nonDNA,F,mri,rating,23,1.847
19968,3,22,unrelatedPrior,noWitness,nonDNA,F,mri,rate_punishment,27,3.344
19968,4,1,relatedPrior,noWitness,noPhys,F,mri,rating,13,1.745
19968,4,1,relatedPrior,noWitness,noPhys,F,mri,rate_punishment,11,2.512
19968,5,5,relatedPrior,noWitness,noPhys,F,mri,rating,16,2.247
19968,5,5,relatedPrior,noWitness,noPhys,F,mri,rate_punishment,85,2.209
19968,6,27,noPrior,noWitness,DNA,F,mri,rating,10,0.757
19968,6,27,noPrior,noWitness,DNA,F,mri,rate_punishment,21,1.66
19968,7,8,relatedPrior,isWitness,DNA,F,mri,rating,100,2.389
19968,7,8,relatedPrior,isWitness,DNA,F,mri,rate_punishment,47,1.792
19968,8,17,noPrior,isWitness,noPhys,F,mri,rating,8,1.892
19968,8,17,noPrior,isWitness,noPhys,F,mri,rate_punishment,50,2.419
19968,9,32,noPrior,isWitness,DNA,F,mri,rating,68,2.979
19968,9,32,noPrior,isWitness,DNA,F,mri,rate_punishment,100,2.611
19968,10,4,noPrior,noWitness,nonDNA,T,mri,rating,25,6
19968,10,4,noPrior,noWitness,nonDNA,T,mri,rate_punishment,56,3.091
19968,11,16,unrelatedPrior,noWitness,DNA,F,mri,rating,58,3.031
19968,11,16,unrelatedPrior,noWitness,DNA,F,mri,rate_punishment,92,3.217
19968,12,30,unrelatedPrior,isWitness,noPhys,F,mri,rating,26,2.375
19968,12,30,unrelatedPrior,isWitness,noPhys,F,mri,rate_punishment,100,2.389
19968,13,33,noPrior,noWitness,nonDNA,F,mri,rating,43,1.878
19968,13,33,noPrior,noWitness,nonDNA,F,mri,rate_punishment,52,1.543
19968,14,15,noPrior,isWitness,noPhys,F,mri,rating,29,1.511
19968,14,15,noPrior,isWitness,noPhys,F,mri,rate_punishment,30,3.01
19968,15,12,noPrior,noWitness,DNA,F,mri,rating,52,2.795
19968,15,12,noPrior,noWitness,DNA,F,mri,rate_punishment,39,1.854
19968,16,10,noPrior,noWitness,nonDNA,F,mri,rating,45,1.445
19968,16,10,noPrior,noWitness,nonDNA,F,mri,rate_punishment,88,2.495
19968,17,14,relatedPrior,noWitness,nonDNA,F,mri,rating,75,3.007
19968,17,14,relatedPrior,noWitness,nonDNA,F,mri,rate_punishment,74,2.702
19968,18,7,noPrior,isWitness,nonDNA,F,mri,rating,86,3.508
19968,18,7,noPrior,isWitness,nonDNA,F,mri,rate_punishment,74,2.819
19968,19,31,unrelatedPrior,isWitness,nonDNA,F,mri,rating,68,2.928
19968,19,31,unrelatedPrior,isWitness,nonDNA,F,mri,rate_punishment,83,3.625
19968,20,28,noPrior,noWitness,DNA,F,mri,rating,0,1.219
19968,20,28,noPrior,noWitness,DNA,F,mri,rate_punishment,100,3.234
19968,21,11,noPrior,isWitness,nonDNA,F,mri,rating,26,2.541
19968,21,11,noPrior,isWitness,nonDNA,F,mri,rate_punishment,0,1.616
19968,22,13,noPrior,isWitness,DNA,F,mri,rating,96,2.653
19968,22,13,noPrior,isWitness,DNA,F,mri,rate_punishment,23,1.663
19968,23,26,noPrior,noWitness,DNA,F,mri,rating,41,2.424
19968,23,26,noPrior,noWitness,DNA,F,mri,rate_punishment,89,3.62
19968,24,20,noPrior,isWitness,nonDNA,F,mri,rating,46,2.667
19968,24,20,noPrior,isWitness,nonDNA,F,mri,rate_punishment,71,3.711
19968,25,25,relatedPrior,noWitness,DNA,F,mri,rating,60,4.816
19968,25,25,relatedPrior,noWitness,DNA,F,mri,rate_punishment,25,2.025
19968,26,2,unrelatedPrior,noWitness,DNA,F,mri,rating,53,3.433
19968,26,2,unrelatedPrior,noWitness,DNA,F,mri,rate_punishment,36,2.014
19968,27,6,relatedPrior,isWitness,noPhys,F,mri,rating,35,3.245
19968,27,6,relatedPrior,isWitness,noPhys,F,mri,rate_punishment,23,1.293
19968,28,18,unrelatedPrior,isWitness,noPhys,F,mri,rating,39,2.579
19968,28,18,unrelatedPrior,isWitness,noPhys,F,mri,rate_punishment,55,2.19
19968,29,21,relatedPrior,isWitness,noPhys,F,mri,rating,66,2.375
19968,29,21,relatedPrior,isWitness,noPhys,F,mri,rate_punishment,64,1.996
19968,30,23,noPrior,isWitness,DNA,F,mri,rating,34,1.803
19968,30,23,noPrior,isWitness,DNA,F,mri,rate_punishment,60,3.394
19968,31,19,relatedPrior,isWitness,noPhys,F,mri,rating,55,2.318
19968,31,19,relatedPrior,isWitness,noPhys,F,mri,rate_punishment,47,3.472
19968,32,9,noPrior,noWitness,DNA,F,mri,rating,52,2.162
19968,32,9,noPrior,noWitness,DNA,F,mri,rate_punishment,52,2.095
19968,33,3,noPrior,noWitness,DNA,F,mri,rating,0,2.089
19968,33,3,noPrior,noWitness,DNA,F,mri,rate_punishment,25,1.331
20080,1,29,relatedPrior,noWitness,DNA,F,mri,rating,96,2.653
20080,1,29,relatedPrior,noWitness,DNA,F,mri,rate_punishment,38,2.223
20080,2,19,relatedPrior,isWitness,noPhys,F,mri,rating,10,1.386
20080,2,19,relatedPrior,isWitness,noPhys,F,mri,rate_punishment,11,1.81
20080,3,18,relatedPrior,noWitness,nonDNA,F,mri,rating,39,2.196
20080,3,18,relatedPrior,noWitness,nonDNA,F,mri,rate_punishment,10,1.364
20080,4,33,relatedPrior,noWitness,noPhys,F,mri,rating,35,3.59
20080,4,33,relatedPrior,noWitness,noPhys,F,mri,rate_punishment,37,4.389
20080,5,24,relatedPrior,noWitness,noPhys,F,mri,rating,0,0.854
20080,5,24,relatedPrior,noWitness,noPhys,F,mri,rate_punishment,22,3.636
20080,6,15,relatedPrior,noWitness,nonDNA,F,mri,rating,25,3.873
20080,6,15,relatedPrior,noWitness,nonDNA,F,mri,rate_punishment,19,2.628
20080,7,10,noPrior,isWitness,noPhys,F,mri,rating,0,1.797
20080,7,10,noPrior,isWitness,noPhys,F,mri,rate_punishment,100,3.037
20080,8,30,unrelatedPrior,noWitness,nonDNA,F,mri,rating,15,1.796
20080,8,30,unrelatedPrior,noWitness,nonDNA,F,mri,rate_punishment,85,4.581
20080,9,7,unrelatedPrior,isWitness,noPhys,F,mri,rating,13,2.693
20080,9,7,unrelatedPrior,isWitness,noPhys,F,mri,rate_punishment,70,4.675
20080,10,21,noPrior,noWitness,noPhys,F,mri,rating,0,0.818
20080,10,21,noPrior,noWitness,noPhys,F,mri,rate_punishment,93,3.675
20080,11,13,noPrior,isWitness,noPhys,T,mri,rating,15,2.441
20080,11,13,noPrior,isWitness,noPhys,T,mri,rate_punishment,68,6
20080,12,28,relatedPrior,noWitness,DNA,F,mri,rating,19,1.904
20080,12,28,relatedPrior,noWitness,DNA,F,mri,rate_punishment,100,3.02
20080,13,27,noPrior,noWitness,nonDNA,F,mri,rating,6,2.46
20080,13,27,noPrior,noWitness,nonDNA,F,mri,rate_punishment,6,2.054
20080,14,16,unrelatedPrior,isWitness,nonDNA,F,mri,rating,58,2.616
20080,14,16,unrelatedPrior,isWitness,nonDNA,F,mri,rate_punishment,100,2.813
20080,15,22,noPrior,noWitness,noPhys,F,mri,rating,0,0.746
20080,15,22,noPrior,noWitness,noPhys,F,mri,rate_punishment,40,2.463
20080,16,20,noPrior,noWitness,nonDNA,F,mri,rating,48,3.074
20080,16,20,noPrior,noWitness,nonDNA,F,mri,rate_punishment,98,2.643
20080,17,17,unrelatedPrior,isWitness,noPhys,F,mri,rating,33,2.782
20080,17,17,unrelatedPrior,isWitness,noPhys,F,mri,rate_punishment,75,3.792
20080,18,3,unrelatedPrior,isWitness,DNA,F,mri,rating,37,2.661
20080,18,3,unrelatedPrior,isWitness,DNA,F,mri,rate_punishment,43,3.049
20080,19,25,noPrior,isWitness,noPhys,F,mri,rating,8,1.336
20080,19,25,noPrior,isWitness,noPhys,F,mri,rate_punishment,28,2.134
20080,20,31,relatedPrior,noWitness,DNA,F,mri,rating,18,2.734
20080,20,31,relatedPrior,noWitness,DNA,F,mri,rate_punishment,95,3.189
20080,21,5,relatedPrior,noWitness,noPhys,F,mri,rating,0,0.891
20080,21,5,relatedPrior,noWitness,noPhys,F,mri,rate_punishment,100,2.52
20080,22,23,unrelatedPrior,noWitness,DNA,F,mri,rating,37,2.829
20080,22,23,unrelatedPrior,noWitness,DNA,F,mri,rate_punishment,100,2.794
20080,23,2,relatedPrior,noWitness,noPhys,F,mri,rating,8,1.814
20080,23,2,relatedPrior,noWitness,noPhys,F,mri,rate_punishment,36,2.255
20080,24,12,noPrior,isWitness,DNA,F,mri,rating,75,2.502
20080,24,12,noPrior,isWitness,DNA,F,mri,rate_punishment,40,2.369
20080,25,14,noPrior,noWitness,DNA,F,mri,rating,9,2.649
20080,25,14,noPrior,noWitness,DNA,F,mri,rate_punishment,70,2.982
20080,26,8,noPrior,isWitness,noPhys,F,mri,rating,11,1.344
20080,26,8,noPrior,isWitness,noPhys,F,mri,rate_punishment,44,3.123
20080,27,26,unrelatedPrior,isWitness,noPhys,F,mri,rating,13,1.612
20080,27,26,unrelatedPrior,isWitness,noPhys,F,mri,rate_punishment,91,3.378
20080,28,4,relatedPrior,noWitness,nonDNA,F,mri,rating,46,2.469
20080,28,4,relatedPrior,noWitness,nonDNA,F,mri,rate_punishment,53,2.028
20080,29,11,unrelatedPrior,noWitness,noPhys,F,mri,rating,0,0.856
20080,29,11,unrelatedPrior,noWitness,noPhys,F,mri,rate_punishment,74,4.048
20080,30,9,unrelatedPrior,isWitness,nonDNA,F,mri,rating,64,2.514
20080,30,9,unrelatedPrior,isWitness,nonDNA,F,mri,rate_punishment,67,3.678
20080,31,1,noPrior,noWitness,noPhys,F,mri,rating,0,0.48
20080,31,1,noPrior,noWitness,noPhys,F,mri,rate_punishment,41,3.092
20080,32,6,relatedPrior,isWitness,DNA,F,mri,rating,64,2.798
20080,32,6,relatedPrior,isWitness,DNA,F,mri,rate_punishment,34,2.266
20080,33,32,unrelatedPrior,noWitness,nonDNA,F,mri,rating,46,2.915
20080,33,32,unrelatedPrior,noWitness,nonDNA,F,mri,rate_punishment,96,2.504
19974,1,17,relatedPrior,isWitness,nonDNA,F,mri,rating,99,4.198
19974,1,17,relatedPrior,isWitness,nonDNA,F,mri,rate_punishment,0,2.134
19974,2,11,noPrior,noWitness,DNA,F,mri,rating,100,2.865
19974,2,11,noPrior,noWitness,DNA,F,mri,rate_punishment,72,5.044
19974,3,4,noPrior,isWitness,noPhys,F,mri,rating,18,2.777
19974,3,4,noPrior,isWitness,noPhys,F,mri,rate_punishment,0,2.99
19974,4,20,relatedPrior,isWitness,nonDNA,F,mri,rating,89,2.837
19974,4,20,relatedPrior,isWitness,nonDNA,F,mri,rate_punishment,61,2.23
19974,5,26,noPrior,noWitness,DNA,F,mri,rating,58,3.004
19974,5,26,noPrior,noWitness,DNA,F,mri,rate_punishment,44,3.437
19974,6,21,relatedPrior,isWitness,DNA,F,mri,rating,55,4.039
19974,6,21,relatedPrior,isWitness,DNA,F,mri,rate_punishment,65,5.252
19974,7,19,noPrior,isWitness,nonDNA,F,mri,rating,75,3.862
19974,7,19,noPrior,isWitness,nonDNA,F,mri,rate_punishment,34,2.368
19974,8,24,unrelatedPrior,isWitness,DNA,F,mri,rating,28,2.501
19974,8,24,unrelatedPrior,isWitness,DNA,F,mri,rate_punishment,33,3.003
19974,9,10,unrelatedPrior,noWitness,DNA,F,mri,rating,42,1.703
19974,9,10,unrelatedPrior,noWitness,DNA,F,mri,rate_punishment,77,4.359
19974,10,32,noPrior,isWitness,nonDNA,F,mri,rating,46,2.742
19974,10,32,noPrior,isWitness,nonDNA,F,mri,rate_punishment,0,2.126
19974,11,13,unrelatedPrior,noWitness,DNA,F,mri,rating,24,4.606
19974,11,13,unrelatedPrior,noWitness,DNA,F,mri,rate_punishment,52,5.127
19974,12,23,relatedPrior,noWitness,noPhys,F,mri,rating,9,2.174
19974,12,23,relatedPrior,noWitness,noPhys,F,mri,rate_punishment,44,5.566
19974,13,7,noPrior,isWitness,nonDNA,F,mri,rating,94,4.377
19974,13,7,noPrior,isWitness,nonDNA,F,mri,rate_punishment,91,4.173
19974,14,28,noPrior,isWitness,nonDNA,F,mri,rating,77,4.461
19974,14,28,noPrior,isWitness,nonDNA,F,mri,rate_punishment,67,2.432
19974,15,1,noPrior,isWitness,noPhys,F,mri,rating,68,4.521
19974,15,1,noPrior,isWitness,noPhys,F,mri,rate_punishment,76,3.375
19974,16,31,unrelatedPrior,isWitness,nonDNA,F,mri,rating,98,2.796
19974,16,31,unrelatedPrior,isWitness,nonDNA,F,mri,rate_punishment,60,3.689
19974,17,27,unrelatedPrior,noWitness,noPhys,F,mri,rating,0,1.847
19974,17,27,unrelatedPrior,noWitness,noPhys,F,mri,rate_punishment,0,2.793
19974,18,29,unrelatedPrior,noWitness,noPhys,F,mri,rating,10,2.668
19974,18,29,unrelatedPrior,noWitness,noPhys,F,mri,rate_punishment,21,2.503
19974,19,25,noPrior,noWitness,noPhys,F,mri,rating,9,3.387
19974,19,25,noPrior,noWitness,noPhys,F,mri,rate_punishment,8,3.286
19974,20,16,unrelatedPrior,isWitness,noPhys,F,mri,rating,11,1.744
19974,20,16,unrelatedPrior,isWitness,noPhys,F,mri,rate_punishment,93,4.532
19974,21,33,relatedPrior,noWitness,noPhys,F,mri,rating,0,3.767
19974,21,33,relatedPrior,noWitness,noPhys,F,mri,rate_punishment,33,1.716
19974,22,5,relatedPrior,noWitness,noPhys,F,mri,rating,35,4.014
19974,22,5,relatedPrior,noWitness,noPhys,F,mri,rate_punishment,61,1.916
19974,23,3,noPrior,isWitness,noPhys,T,mri,rating,47,3.718
19974,23,3,noPrior,isWitness,noPhys,T,mri,rate_punishment,31,6
19974,24,22,noPrior,noWitness,nonDNA,F,mri,rating,62,4.095
19974,24,22,noPrior,noWitness,nonDNA,F,mri,rate_punishment,35,5.389
19974,25,14,noPrior,noWitness,nonDNA,F,mri,rating,50,1.745
19974,25,14,noPrior,noWitness,nonDNA,F,mri,rate_punishment,57,2.205
19974,26,6,noPrior,noWitness,DNA,F,mri,rating,42,2.926
19974,26,6,noPrior,noWitness,DNA,F,mri,rate_punishment,56,3.656
19974,27,8,unrelatedPrior,noWitness,noPhys,F,mri,rating,27,2.731
19974,27,8,unrelatedPrior,noWitness,noPhys,F,mri,rate_punishment,44,2.246
19974,28,12,unrelatedPrior,noWitness,nonDNA,F,mri,rating,56,3.538
19974,28,12,unrelatedPrior,noWitness,nonDNA,F,mri,rate_punishment,61,2.455
19974,29,15,noPrior,isWitness,DNA,F,mri,rating,29,3.165
19974,29,15,noPrior,isWitness,DNA,F,mri,rate_punishment,25,1.427
19974,30,2,noPrior,isWitness,nonDNA,F,mri,rating,82,2.502
19974,30,2,noPrior,isWitness,nonDNA,F,mri,rate_punishment,38,2.24
19974,31,18,unrelatedPrior,isWitness,nonDNA,F,mri,rating,67,2.286
19974,31,18,unrelatedPrior,isWitness,nonDNA,F,mri,rate_punishment,26,1.203
19974,32,9,relatedPrior,noWitness,DNA,F,mri,rating,37,2.979
19974,32,9,relatedPrior,noWitness,DNA,F,mri,rate_punishment,53,1.625
19974,33,30,noPrior,noWitness,DNA,F,mri,rating,90,2.362
19974,33,30,noPrior,noWitness,DNA,F,mri,rate_punishment,83,2.517
19983,1,25,relatedPrior,noWitness,DNA,F,mri,rating,31,5.274
19983,1,25,relatedPrior,noWitness,DNA,F,mri,rate_punishment,17,5.974
19983,2,19,relatedPrior,isWitness,nonDNA,T,mri,rating,67,6
19983,2,19,relatedPrior,isWitness,nonDNA,T,mri,rate_punishment,38,3.493
19983,3,33,unrelatedPrior,noWitness,DNA,F,mri,rating,0,1.91
19983,3,33,unrelatedPrior,noWitness,DNA,F,mri,rate_punishment,22,4.26
19983,4,13,noPrior,isWitness,DNA,F,mri,rating,63,4.767
19983,4,13,noPrior,isWitness,DNA,F,mri,rate_punishment,23,3.444
19983,5,3,relatedPrior,noWitness,DNA,F,mri,rating,0,1.263
19983,5,3,relatedPrior,noWitness,DNA,F,mri,rate_punishment,29,4.125
19983,6,12,relatedPrior,isWitness,DNA,F,mri,rating,66,4.146
19983,6,12,relatedPrior,isWitness,DNA,F,mri,rate_punishment,37,4.71
19983,7,16,noPrior,noWitness,DNA,F,mri,rating,24,5.212
19983,7,16,noPrior,noWitness,DNA,F,mri,rate_punishment,93,3.967
19983,8,30,unrelatedPrior,noWitness,DNA,F,mri,rating,69,3.063
19983,8,30,unrelatedPrior,noWitness,DNA,F,mri,rate_punishment,82,3.06
19983,9,22,unrelatedPrior,isWitness,noPhys,F,mri,rating,16,3.778
19983,9,22,unrelatedPrior,isWitness,noPhys,F,mri,rate_punishment,55,4.291
19983,10,4,unrelatedPrior,noWitness,nonDNA,F,mri,rating,44,5.496
19983,10,4,unrelatedPrior,noWitness,nonDNA,F,mri,rate_punishment,39,2.843
19983,11,10,noPrior,noWitness,noPhys,F,mri,rating,20,2.943
19983,11,10,noPrior,noWitness,noPhys,F,mri,rate_punishment,76,3.294
19983,12,2,unrelatedPrior,noWitness,noPhys,F,mri,rating,0,1.366
19983,12,2,unrelatedPrior,noWitness,noPhys,F,mri,rate_punishment,31,5.061
19983,13,11,unrelatedPrior,noWitness,DNA,F,mri,rating,65,4.262
19983,13,11,unrelatedPrior,noWitness,DNA,F,mri,rate_punishment,89,3.678
19983,14,6,unrelatedPrior,noWitness,noPhys,F,mri,rating,9,3.913
19983,14,6,unrelatedPrior,noWitness,noPhys,F,mri,rate_punishment,17,3.625
19983,15,32,relatedPrior,isWitness,DNA,F,mri,rating,66,5.229
19983,15,32,relatedPrior,isWitness,DNA,F,mri,rate_punishment,67,3.327
19983,16,21,noPrior,noWitness,nonDNA,F,mri,rating,66,4.112
19983,16,21,noPrior,noWitness,nonDNA,F,mri,rate_punishment,90,5.695
19983,17,24,noPrior,noWitness,nonDNA,T,mri,rating,89,6
19983,17,24,noPrior,noWitness,nonDNA,T,mri,rate_punishment,56,3.094
19983,18,17,unrelatedPrior,isWitness,DNA,F,mri,rating,82,5.279
19983,18,17,unrelatedPrior,isWitness,DNA,F,mri,rate_punishment,78,3.043
19983,19,15,unrelatedPrior,isWitness,noPhys,F,mri,rating,11,2.295
19983,19,15,unrelatedPrior,isWitness,noPhys,F,mri,rate_punishment,33,4.055
19983,20,1,unrelatedPrior,isWitness,nonDNA,F,mri,rating,76,4.166
19983,20,1,unrelatedPrior,isWitness,nonDNA,F,mri,rate_punishment,52,2.962
19983,21,5,unrelatedPrior,isWitness,DNA,F,mri,rating,94,3.296
19983,21,5,unrelatedPrior,isWitness,DNA,F,mri,rate_punishment,81,3.311
19983,22,26,noPrior,noWitness,DNA,F,mri,rating,69,3.011
19983,22,26,noPrior,noWitness,DNA,F,mri,rate_punishment,89,2.861
19983,23,9,noPrior,noWitness,DNA,F,mri,rating,36,4.706
19983,23,9,noPrior,noWitness,DNA,F,mri,rate_punishment,24,2.528
19983,24,18,relatedPrior,isWitness,noPhys,F,mri,rating,28,2.83
19983,24,18,relatedPrior,isWitness,noPhys,F,mri,rate_punishment,36,3.161
19983,25,20,noPrior,isWitness,noPhys,F,mri,rating,21,3.396
19983,25,20,noPrior,isWitness,noPhys,F,mri,rate_punishment,91,4.509
19983,26,29,relatedPrior,isWitness,DNA,F,mri,rating,77,3.323
19983,26,29,relatedPrior,isWitness,DNA,F,mri,rate_punishment,76,2.644
19983,27,8,unrelatedPrior,noWitness,noPhys,T,mri,rating,0,1.279
19983,27,8,unrelatedPrior,noWitness,noPhys,T,mri,rate_punishment,33,6
19983,28,23,noPrior,noWitness,noPhys,F,mri,rating,3,2.413
19983,28,23,noPrior,noWitness,noPhys,F,mri,rate_punishment,90,2.425
19983,29,7,relatedPrior,noWitness,noPhys,F,mri,rating,11,3.013
19983,29,7,relatedPrior,noWitness,noPhys,F,mri,rate_punishment,85,2.01
19983,30,31,unrelatedPrior,noWitness,nonDNA,F,mri,rating,43,2.628
19983,30,31,unrelatedPrior,noWitness,nonDNA,F,mri,rate_punishment,75,3.945
19983,31,28,unrelatedPrior,noWitness,nonDNA,F,mri,rating,11,2.145
19983,31,28,unrelatedPrior,noWitness,nonDNA,F,mri,rate_punishment,99,3.372
19983,32,14,unrelatedPrior,noWitness,nonDNA,F,mri,rating,64,3.613
19983,32,14,unrelatedPrior,noWitness,nonDNA,F,mri,rate_punishment,81,1.964
19983,33,27,noPrior,noWitness,DNA,F,mri,rating,41,3.696
19983,33,27,noPrior,noWitness,DNA,F,mri,rate_punishment,16,1.827
20009,1,12,unrelatedPrior,isWitness,noPhys,F,mri,rating,0,2.074
20009,1,12,unrelatedPrior,isWitness,noPhys,F,mri,rate_punishment,0,3.139
20009,2,19,relatedPrior,noWitness,noPhys,F,mri,rating,11,2.646
20009,2,19,relatedPrior,noWitness,noPhys,F,mri,rate_punishment,22,4.291
20009,3,25,relatedPrior,noWitness,nonDNA,F,mri,rating,43,4.556
20009,3,25,relatedPrior,noWitness,nonDNA,F,mri,rate_punishment,62,4.513
20009,4,10,relatedPrior,noWitness,noPhys,F,mri,rating,0,1.224
20009,4,10,relatedPrior,noWitness,noPhys,F,mri,rate_punishment,97,2.941
20009,5,17,unrelatedPrior,noWitness,DNA,F,mri,rating,29,3.764
20009,5,17,unrelatedPrior,noWitness,DNA,F,mri,rate_punishment,71,4.325
20009,6,26,unrelatedPrior,noWitness,noPhys,F,mri,rating,33,2.511
20009,6,26,unrelatedPrior,noWitness,noPhys,F,mri,rate_punishment,94,2.457
20009,7,16,noPrior,isWitness,nonDNA,F,mri,rating,96,2.406
20009,7,16,noPrior,isWitness,nonDNA,F,mri,rate_punishment,100,2.105
20009,8,27,noPrior,noWitness,nonDNA,F,mri,rating,26,3.527
20009,8,27,noPrior,noWitness,nonDNA,F,mri,rate_punishment,18,2.887
20009,9,3,relatedPrior,isWitness,nonDNA,F,mri,rating,99,3.134
20009,9,3,relatedPrior,isWitness,nonDNA,F,mri,rate_punishment,29,1.658
20009,10,29,unrelatedPrior,isWitness,DNA,F,mri,rating,100,2.676
20009,10,29,unrelatedPrior,isWitness,DNA,F,mri,rate_punishment,33,1.761
20009,11,28,relatedPrior,noWitness,noPhys,F,mri,rating,0,0.525
20009,11,28,relatedPrior,noWitness,noPhys,F,mri,rate_punishment,0,1.126
20009,12,20,unrelatedPrior,isWitness,DNA,F,mri,rating,100,2.463
20009,12,20,unrelatedPrior,isWitness,DNA,F,mri,rate_punishment,92,2.142
20009,13,32,relatedPrior,isWitness,noPhys,F,mri,rating,9,2.405
20009,13,32,relatedPrior,isWitness,noPhys,F,mri,rate_punishment,96,2.076
20009,14,23,unrelatedPrior,noWitness,nonDNA,F,mri,rating,0,0.844
20009,14,23,unrelatedPrior,noWitness,nonDNA,F,mri,rate_punishment,97,2.326
20009,15,14,noPrior,noWitness,DNA,F,mri,rating,98,2.412
20009,15,14,noPrior,noWitness,DNA,F,mri,rate_punishment,77,2.593
20009,16,15,unrelatedPrior,isWitness,DNA,F,mri,rating,24,4.453
20009,16,15,unrelatedPrior,isWitness,DNA,F,mri,rate_punishment,19,2.942
20009,17,4,relatedPrior,noWitness,nonDNA,F,mri,rating,100,4.629
20009,17,4,relatedPrior,noWitness,nonDNA,F,mri,rate_punishment,64,3.109
20009,18,6,relatedPrior,isWitness,noPhys,T,mri,rating,57,6
20009,18,6,relatedPrior,isWitness,noPhys,T,mri,rate_punishment,27,3.31
20009,19,30,relatedPrior,isWitness,DNA,F,mri,rating,0,0.946
20009,19,30,relatedPrior,isWitness,DNA,F,mri,rate_punishment,76,3.725
20009,20,21,unrelatedPrior,noWitness,DNA,F,mri,rating,68,4.029
20009,20,21,unrelatedPrior,noWitness,DNA,F,mri,rate_punishment,100,4.226
20009,21,24,relatedPrior,isWitness,nonDNA,F,mri,rating,67,2.764
20009,21,24,relatedPrior,isWitness,nonDNA,F,mri,rate_punishment,48,2.277
20009,22,31,relatedPrior,noWitness,nonDNA,F,mri,rating,29,3.045
20009,22,31,relatedPrior,noWitness,nonDNA,F,mri,rate_punishment,41,2.325
20009,23,18,unrelatedPrior,noWitness,noPhys,F,mri,rating,0,0.945
20009,23,18,unrelatedPrior,noWitness,noPhys,F,mri,rate_punishment,22,4.762
20009,24,8,unrelatedPrior,isWitness,nonDNA,F,mri,rating,96,3.095
20009,24,8,unrelatedPrior,isWitness,nonDNA,F,mri,rate_punishment,26,3.476
20009,25,11,relatedPrior,noWitness,DNA,F,mri,rating,98,2.612
20009,25,11,relatedPrior,noWitness,DNA,F,mri,rate_punishment,84,1.907
20009,26,2,unrelatedPrior,isWitness,DNA,F,mri,rating,100,2.66
20009,26,2,unrelatedPrior,isWitness,DNA,F,mri,rate_punishment,51,1.46
20009,27,33,unrelatedPrior,isWitness,nonDNA,F,mri,rating,76,2.311
20009,27,33,unrelatedPrior,isWitness,nonDNA,F,mri,rate_punishment,47,4.125
20009,28,13,relatedPrior,noWitness,DNA,F,mri,rating,39,3.661
20009,28,13,relatedPrior,noWitness,DNA,F,mri,rate_punishment,16,4.374
20009,29,1,unrelatedPrior,noWitness,DNA,F,mri,rating,67,3.612
20009,29,1,unrelatedPrior,noWitness,DNA,F,mri,rate_punishment,39,3.174
20009,30,22,unrelatedPrior,noWitness,noPhys,F,mri,rating,45,2.144
20009,30,22,unrelatedPrior,noWitness,noPhys,F,mri,rate_punishment,64,2.308
20009,31,9,relatedPrior,noWitness,DNA,T,mri,rating,0,6
20009,31,9,relatedPrior,noWitness,DNA,T,mri,rate_punishment,51,2.192
20009,32,7,noPrior,noWitness,DNA,F,mri,rating,73,2.744
20009,32,7,noPrior,noWitness,DNA,F,mri,rate_punishment,89,3.291
20009,33,5,relatedPrior,isWitness,DNA,T,mri,rating,0,6
20009,33,5,relatedPrior,isWitness,DNA,T,mri,rate_punishment,42,1.592
20070,1,29,noPrior,noWitness,noPhys,F,mri,rating,32,2.637
20070,1,29,noPrior,noWitness,noPhys,F,mri,rate_punishment,62,4.909
20070,2,32,relatedPrior,noWitness,nonDNA,F,mri,rating,82,2.929
20070,2,32,relatedPrior,noWitness,nonDNA,F,mri,rate_punishment,100,2.778
20070,3,9,unrelatedPrior,noWitness,nonDNA,F,mri,rating,40,2.076
20070,3,9,unrelatedPrior,noWitness,nonDNA,F,mri,rate_punishment,19,1.363
20070,4,20,relatedPrior,isWitness,nonDNA,F,mri,rating,76,2.462
20070,4,20,relatedPrior,isWitness,nonDNA,F,mri,rate_punishment,100,2.209
20070,5,16,noPrior,noWitness,noPhys,F,mri,rating,0,0.78
20070,5,16,noPrior,noWitness,noPhys,F,mri,rate_punishment,100,2.611
20070,6,13,relatedPrior,noWitness,nonDNA,F,mri,rating,36,1.622
20070,6,13,relatedPrior,noWitness,nonDNA,F,mri,rate_punishment,36,1.761
20070,7,17,relatedPrior,isWitness,DNA,F,mri,rating,100,2.394
20070,7,17,relatedPrior,isWitness,DNA,F,mri,rate_punishment,92,3.164
20070,8,22,relatedPrior,isWitness,DNA,F,mri,rating,91,2.56
20070,8,22,relatedPrior,isWitness,DNA,F,mri,rate_punishment,58,2.943
20070,9,21,unrelatedPrior,noWitness,noPhys,F,mri,rating,10,1.212
20070,9,21,unrelatedPrior,noWitness,noPhys,F,mri,rate_punishment,82,2.994
20070,10,24,relatedPrior,isWitness,noPhys,F,mri,rating,51,2.077
20070,10,24,relatedPrior,isWitness,noPhys,F,mri,rate_punishment,36,1.709
20070,11,31,relatedPrior,noWitness,noPhys,F,mri,rating,35,1.929
20070,11,31,relatedPrior,noWitness,noPhys,F,mri,rate_punishment,75,2.077
20070,12,26,unrelatedPrior,noWitness,nonDNA,F,mri,rating,47,2.18
20070,12,26,unrelatedPrior,noWitness,nonDNA,F,mri,rate_punishment,90,2.61
20070,13,14,noPrior,isWitness,noPhys,F,mri,rating,71,1.879
20070,13,14,noPrior,isWitness,noPhys,F,mri,rate_punishment,89,1.963
20070,14,12,relatedPrior,noWitness,nonDNA,F,mri,rating,63,1.929
20070,14,12,relatedPrior,noWitness,nonDNA,F,mri,rate_punishment,35,1.16
20070,15,7,relatedPrior,isWitness,DNA,F,mri,rating,100,2.413
20070,15,7,relatedPrior,isWitness,DNA,F,mri,rate_punishment,100,2.964
20070,16,8,noPrior,isWitness,nonDNA,F,mri,rating,83,2.177
20070,16,8,noPrior,isWitness,nonDNA,F,mri,rate_punishment,24,1.327
20070,17,23,unrelatedPrior,isWitness,DNA,F,mri,rating,62,1.965
20070,17,23,unrelatedPrior,isWitness,DNA,F,mri,rate_punishment,100,2.076
20070,18,3,noPrior,noWitness,DNA,F,mri,rating,24,1.344
20070,18,3,noPrior,noWitness,DNA,F,mri,rate_punishment,9,0.727
20070,19,25,relatedPrior,isWitness,noPhys,F,mri,rating,55,2.046
20070,19,25,relatedPrior,isWitness,noPhys,F,mri,rate_punishment,8,0.81
20070,20,19,relatedPrior,isWitness,nonDNA,F,mri,rating,79,1.765
20070,20,19,relatedPrior,isWitness,nonDNA,F,mri,rate_punishment,44,1.211
20070,21,27,noPrior,noWitness,nonDNA,F,mri,rating,29,1.311
20070,21,27,noPrior,noWitness,nonDNA,F,mri,rate_punishment,0,0.46
20070,22,6,unrelatedPrior,noWitness,DNA,F,mri,rating,41,2.027
20070,22,6,unrelatedPrior,noWitness,DNA,F,mri,rate_punishment,20,1.509
20070,23,1,noPrior,noWitness,DNA,F,mri,rating,0,1.366
20070,23,1,noPrior,noWitness,DNA,F,mri,rate_punishment,0,0.46
20070,24,10,relatedPrior,noWitness,noPhys,F,mri,rating,9,1.045
20070,24,10,relatedPrior,noWitness,noPhys,F,mri,rate_punishment,100,2.425
20070,25,15,relatedPrior,noWitness,noPhys,F,mri,rating,9,0.861
20070,25,15,relatedPrior,noWitness,noPhys,F,mri,rate_punishment,35,1.492
20070,26,4,relatedPrior,noWitness,DNA,F,mri,rating,56,1.93
20070,26,4,relatedPrior,noWitness,DNA,F,mri,rate_punishment,30,1.192
20070,27,11,unrelatedPrior,noWitness,noPhys,F,mri,rating,20,1.396
20070,27,11,unrelatedPrior,noWitness,noPhys,F,mri,rate_punishment,74,1.911
20070,28,28,unrelatedPrior,noWitness,nonDNA,F,mri,rating,57,2.71
20070,28,28,unrelatedPrior,noWitness,nonDNA,F,mri,rate_punishment,100,2.277
20070,29,2,noPrior,isWitness,nonDNA,F,mri,rating,56,2.195
20070,29,2,noPrior,isWitness,nonDNA,F,mri,rate_punishment,53,1.511
20070,30,30,unrelatedPrior,noWitness,nonDNA,F,mri,rating,42,1.229
20070,30,30,unrelatedPrior,noWitness,nonDNA,F,mri,rate_punishment,69,1.643
20070,31,18,unrelatedPrior,noWitness,noPhys,F,mri,rating,26,1.394
20070,31,18,unrelatedPrior,noWitness,noPhys,F,mri,rate_punishment,21,1.228
20070,32,33,unrelatedPrior,noWitness,nonDNA,F,mri,rating,61,1.528
20070,32,33,unrelatedPrior,noWitness,nonDNA,F,mri,rate_punishment,68,1.527
20070,33,5,relatedPrior,noWitness,noPhys,F,mri,rating,52,2.179
20070,33,5,relatedPrior,noWitness,noPhys,F,mri,rate_punishment,63,1.436
19993,1,6,relatedPrior,isWitness,DNA,F,mri,rating,100,3.344
19993,1,6,relatedPrior,isWitness,DNA,F,mri,rate_punishment,40,2.657
19993,2,33,noPrior,noWitness,noPhys,F,mri,rating,13,3.843
19993,2,33,noPrior,noWitness,noPhys,F,mri,rate_punishment,60,3.994
19993,3,16,relatedPrior,isWitness,nonDNA,F,mri,rating,73,3.211
19993,3,16,relatedPrior,isWitness,nonDNA,F,mri,rate_punishment,100,3.628
19993,4,28,unrelatedPrior,noWitness,DNA,F,mri,rating,0,2.061
19993,4,28,unrelatedPrior,noWitness,DNA,F,mri,rate_punishment,91,5.776
19993,5,4,noPrior,noWitness,noPhys,F,mri,rating,0,2.312
19993,5,4,noPrior,noWitness,noPhys,F,mri,rate_punishment,32,3.892
19993,6,15,unrelatedPrior,noWitness,DNA,F,mri,rating,61,2.555
19993,6,15,unrelatedPrior,noWitness,DNA,F,mri,rate_punishment,40,2.877
19993,7,2,unrelatedPrior,noWitness,noPhys,F,mri,rating,0,1.646
19993,7,2,unrelatedPrior,noWitness,noPhys,F,mri,rate_punishment,24,4.893
19993,8,19,unrelatedPrior,noWitness,noPhys,F,mri,rating,0,4.744
19993,8,19,unrelatedPrior,noWitness,noPhys,F,mri,rate_punishment,35,4.227
19993,9,11,relatedPrior,noWitness,nonDNA,F,mri,rating,83,2.513
19993,9,11,relatedPrior,noWitness,nonDNA,F,mri,rate_punishment,0,0.992
19993,10,32,unrelatedPrior,noWitness,nonDNA,F,mri,rating,87,5.229
19993,10,32,unrelatedPrior,noWitness,nonDNA,F,mri,rate_punishment,84,3.905
19993,11,21,relatedPrior,noWitness,nonDNA,F,mri,rating,80,3.013
19993,11,21,relatedPrior,noWitness,nonDNA,F,mri,rate_punishment,100,3.11
19993,12,5,noPrior,noWitness,noPhys,F,mri,rating,0,1.597
19993,12,5,noPrior,noWitness,noPhys,F,mri,rate_punishment,92,3.227
19993,13,26,noPrior,isWitness,nonDNA,F,mri,rating,89,2.994
19993,13,26,noPrior,isWitness,nonDNA,F,mri,rate_punishment,100,3.71
19993,14,31,relatedPrior,noWitness,noPhys,F,mri,rating,20,2.727
19993,14,31,relatedPrior,noWitness,noPhys,F,mri,rate_punishment,46,3.509
19993,15,24,relatedPrior,isWitness,nonDNA,F,mri,rating,97,2.496
19993,15,24,relatedPrior,isWitness,nonDNA,F,mri,rate_punishment,36,2.973
19993,16,17,relatedPrior,noWitness,nonDNA,F,mri,rating,85,2.26
19993,16,17,relatedPrior,noWitness,nonDNA,F,mri,rate_punishment,56,5.06
19993,17,29,relatedPrior,noWitness,DNA,F,mri,rating,97,3.511
19993,17,29,relatedPrior,noWitness,DNA,F,mri,rate_punishment,28,3.01
19993,18,27,noPrior,isWitness,nonDNA,F,mri,rating,52,1.861
19993,18,27,noPrior,isWitness,nonDNA,F,mri,rate_punishment,17,2.563
19993,19,18,noPrior,noWitness,DNA,F,mri,rating,47,2.393
19993,19,18,noPrior,noWitness,DNA,F,mri,rate_punishment,42,5.009
19993,20,23,relatedPrior,isWitness,noPhys,F,mri,rating,73,3.528
19993,20,23,relatedPrior,isWitness,noPhys,F,mri,rate_punishment,100,3.175
19993,21,25,unrelatedPrior,noWitness,nonDNA,F,mri,rating,66,2.912
19993,21,25,unrelatedPrior,noWitness,nonDNA,F,mri,rate_punishment,9,2.26
19993,22,22,relatedPrior,isWitness,noPhys,F,mri,rating,50,2.644
19993,22,22,relatedPrior,isWitness,noPhys,F,mri,rate_punishment,30,3.311
19993,23,10,unrelatedPrior,isWitness,DNA,F,mri,rating,93,2.862
19993,23,10,unrelatedPrior,isWitness,DNA,F,mri,rate_punishment,100,3.744
19993,24,1,relatedPrior,isWitness,noPhys,F,mri,rating,55,1.796
19993,24,1,relatedPrior,isWitness,noPhys,F,mri,rate_punishment,35,3.041
19993,25,20,relatedPrior,isWitness,DNA,F,mri,rating,84,3.746
19993,25,20,relatedPrior,isWitness,DNA,F,mri,rate_punishment,100,3.477
19993,26,3,relatedPrior,isWitness,noPhys,F,mri,rating,40,2.045
19993,26,3,relatedPrior,isWitness,noPhys,F,mri,rate_punishment,14,2.643
19993,27,30,unrelatedPrior,isWitness,nonDNA,F,mri,rating,92,3.262
19993,27,30,unrelatedPrior,isWitness,nonDNA,F,mri,rate_punishment,64,4.044
19993,28,13,noPrior,noWitness,DNA,F,mri,rating,62,3.042
19993,28,13,noPrior,noWitness,DNA,F,mri,rate_punishment,38,3.362
19993,29,7,noPrior,noWitness,DNA,F,mri,rating,97,3.096
19993,29,7,noPrior,noWitness,DNA,F,mri,rate_punishment,0,1.06
19993,30,12,noPrior,isWitness,DNA,F,mri,rating,85,4.091
19993,30,12,noPrior,isWitness,DNA,F,mri,rate_punishment,39,3.459
19993,31,8,relatedPrior,noWitness,nonDNA,F,mri,rating,79,2.376
19993,31,8,relatedPrior,noWitness,nonDNA,F,mri,rate_punishment,38,3.776
19993,32,9,unrelatedPrior,noWitness,DNA,F,mri,rating,93,2.779
19993,32,9,unrelatedPrior,noWitness,DNA,F,mri,rate_punishment,51,2.994
19993,33,14,noPrior,noWitness,DNA,F,mri,rating,100,2.779
19993,33,14,noPrior,noWitness,DNA,F,mri,rate_punishment,90,5.526
19963,1,2,noPrior,noWitness,noPhys,F,mri,rating,0,4.092
19963,1,2,noPrior,noWitness,noPhys,F,mri,rate_punishment,0,5.327
19963,2,33,noPrior,noWitness,DNA,F,mri,rating,29,3.036
19963,2,33,noPrior,noWitness,DNA,F,mri,rate_punishment,38,3.234
19963,3,4,noPrior,isWitness,DNA,F,mri,rating,75,2.667
19963,3,4,noPrior,isWitness,DNA,F,mri,rate_punishment,81,3.424
19963,4,13,unrelatedPrior,isWitness,nonDNA,F,mri,rating,100,3.249
19963,4,13,unrelatedPrior,isWitness,nonDNA,F,mri,rate_punishment,100,4.694
19963,5,9,noPrior,isWitness,noPhys,F,mri,rating,68,3.074
19963,5,9,noPrior,isWitness,noPhys,F,mri,rate_punishment,68,2.658
19963,6,32,relatedPrior,isWitness,noPhys,F,mri,rating,71,4.012
19963,6,32,relatedPrior,isWitness,noPhys,F,mri,rate_punishment,41,3.259
19963,7,21,unrelatedPrior,noWitness,noPhys,F,mri,rating,0,1.13
19963,7,21,unrelatedPrior,noWitness,noPhys,F,mri,rate_punishment,0,1.64
19963,8,17,unrelatedPrior,isWitness,nonDNA,F,mri,rating,98,3.488
19963,8,17,unrelatedPrior,isWitness,nonDNA,F,mri,rate_punishment,75,3.403
19963,9,20,relatedPrior,isWitness,nonDNA,F,mri,rating,100,4.063
19963,9,20,relatedPrior,isWitness,nonDNA,F,mri,rate_punishment,100,3.326
19963,10,24,noPrior,noWitness,nonDNA,F,mri,rating,72,3.429
19963,10,24,noPrior,noWitness,nonDNA,F,mri,rate_punishment,81,3.679
19963,11,23,noPrior,isWitness,nonDNA,F,mri,rating,100,3.306
19963,11,23,noPrior,isWitness,nonDNA,F,mri,rate_punishment,100,3.637
19963,12,27,relatedPrior,noWitness,noPhys,F,mri,rating,0,1.185
19963,12,27,relatedPrior,noWitness,noPhys,F,mri,rate_punishment,0,1.33
19963,13,12,unrelatedPrior,isWitness,noPhys,F,mri,rating,16,3.509
19963,13,12,unrelatedPrior,isWitness,noPhys,F,mri,rate_punishment,16,2.432
19963,14,11,noPrior,isWitness,nonDNA,F,mri,rating,100,4.958
19963,14,11,noPrior,isWitness,nonDNA,F,mri,rate_punishment,99,4.16
19963,15,29,noPrior,isWitness,noPhys,F,mri,rating,82,2.806
19963,15,29,noPrior,isWitness,noPhys,F,mri,rate_punishment,58,4.22
19963,16,15,relatedPrior,isWitness,noPhys,F,mri,rating,33,2.75
19963,16,15,relatedPrior,isWitness,noPhys,F,mri,rate_punishment,15,5.172
19963,17,8,noPrior,isWitness,noPhys,F,mri,rating,77,3.105
19963,17,8,noPrior,isWitness,noPhys,F,mri,rate_punishment,0,0.906
19963,18,16,unrelatedPrior,noWitness,nonDNA,F,mri,rating,88,2.895
19963,18,16,unrelatedPrior,noWitness,nonDNA,F,mri,rate_punishment,86,2.889
19963,19,10,noPrior,isWitness,nonDNA,F,mri,rating,84,4.647
19963,19,10,noPrior,isWitness,nonDNA,F,mri,rate_punishment,81,3.071
19963,20,31,relatedPrior,noWitness,DNA,F,mri,rating,93,3.631
19963,20,31,relatedPrior,noWitness,DNA,F,mri,rate_punishment,90,3.487
19963,21,6,relatedPrior,noWitness,noPhys,F,mri,rating,0,1.421
19963,21,6,relatedPrior,noWitness,noPhys,F,mri,rate_punishment,0,1.727
19963,22,22,noPrior,noWitness,noPhys,F,mri,rating,48,5.255
19963,22,22,noPrior,noWitness,noPhys,F,mri,rate_punishment,41,4.086
19963,23,18,unrelatedPrior,isWitness,noPhys,F,mri,rating,15,2.379
19963,23,18,unrelatedPrior,isWitness,noPhys,F,mri,rate_punishment,10,2.287
19963,24,28,unrelatedPrior,isWitness,noPhys,F,mri,rating,62,3.476
19963,24,28,unrelatedPrior,isWitness,noPhys,F,mri,rate_punishment,100,4.872
19963,25,19,noPrior,noWitness,nonDNA,F,mri,rating,100,3.117
19963,25,19,noPrior,noWitness,nonDNA,F,mri,rate_punishment,38,3.06
19963,26,7,noPrior,isWitness,noPhys,F,mri,rating,72,3.291
19963,26,7,noPrior,isWitness,noPhys,F,mri,rate_punishment,100,4.301
19963,27,26,noPrior,isWitness,noPhys,F,mri,rating,44,2.61
19963,27,26,noPrior,isWitness,noPhys,F,mri,rate_punishment,100,2.859
19963,28,30,relatedPrior,isWitness,nonDNA,F,mri,rating,72,2.996
19963,28,30,relatedPrior,isWitness,nonDNA,F,mri,rate_punishment,98,3.504
19963,29,14,noPrior,isWitness,noPhys,F,mri,rating,62,3.679
19963,29,14,noPrior,isWitness,noPhys,F,mri,rate_punishment,83,3.524
19963,30,25,noPrior,noWitness,nonDNA,F,mri,rating,63,3.32
19963,30,25,noPrior,noWitness,nonDNA,F,mri,rate_punishment,27,2.021
19963,31,3,relatedPrior,noWitness,DNA,F,mri,rating,91,4.063
19963,31,3,relatedPrior,noWitness,DNA,F,mri,rate_punishment,27,2.277
19963,32,1,noPrior,isWitness,DNA,F,mri,rating,99,2.979
19963,32,1,noPrior,isWitness,DNA,F,mri,rate_punishment,23,2.344
19963,33,5,relatedPrior,noWitness,noPhys,F,mri,rating,32,3.412
19963,33,5,relatedPrior,noWitness,noPhys,F,mri,rate_punishment,100,3.074
20075,1,21,relatedPrior,noWitness,nonDNA,F,mri,rating,71,4.194
20075,1,21,relatedPrior,noWitness,nonDNA,F,mri,rate_punishment,53,3.942
20075,2,24,unrelatedPrior,noWitness,DNA,F,mri,rating,43,3.495
20075,2,24,unrelatedPrior,noWitness,DNA,F,mri,rate_punishment,38,4.276
20075,3,23,noPrior,noWitness,noPhys,F,mri,rating,0,2.095
20075,3,23,noPrior,noWitness,noPhys,F,mri,rate_punishment,0,4.761
20075,4,12,unrelatedPrior,noWitness,nonDNA,F,mri,rating,74,3.296
20075,4,12,unrelatedPrior,noWitness,nonDNA,F,mri,rate_punishment,22,2.343
20075,5,31,relatedPrior,isWitness,DNA,F,mri,rating,100,2.811
20075,5,31,relatedPrior,isWitness,DNA,F,mri,rate_punishment,98,4.324
20075,6,19,noPrior,noWitness,DNA,F,mri,rating,42,4.013
20075,6,19,noPrior,noWitness,DNA,F,mri,rate_punishment,13,2.576
20075,7,5,unrelatedPrior,noWitness,DNA,F,mri,rating,86,3.679
20075,7,5,unrelatedPrior,noWitness,DNA,F,mri,rate_punishment,0,0.911
20075,8,30,noPrior,noWitness,noPhys,F,mri,rating,52,3.712
20075,8,30,noPrior,noWitness,noPhys,F,mri,rate_punishment,12,2.377
20075,9,27,noPrior,isWitness,DNA,F,mri,rating,76,3.027
20075,9,27,noPrior,isWitness,DNA,F,mri,rate_punishment,11,2.444
20075,10,4,noPrior,noWitness,noPhys,F,mri,rating,0,1.416
20075,10,4,noPrior,noWitness,noPhys,F,mri,rate_punishment,0,1.562
20075,11,25,unrelatedPrior,isWitness,DNA,F,mri,rating,16,3.443
20075,11,25,unrelatedPrior,isWitness,DNA,F,mri,rate_punishment,0,2.137
20075,12,11,relatedPrior,isWitness,noPhys,F,mri,rating,13,2.462
20075,12,11,relatedPrior,isWitness,noPhys,F,mri,rate_punishment,26,3.46
20075,13,6,relatedPrior,noWitness,nonDNA,F,mri,rating,37,3.02
20075,13,6,relatedPrior,noWitness,nonDNA,F,mri,rate_punishment,10,2.243
20075,14,28,unrelatedPrior,isWitness,nonDNA,F,mri,rating,55,4.612
20075,14,28,unrelatedPrior,isWitness,nonDNA,F,mri,rate_punishment,25,2.426
20075,15,2,noPrior,isWitness,DNA,F,mri,rating,36,2.329
20075,15,2,noPrior,isWitness,DNA,F,mri,rate_punishment,14,1.794
20075,16,29,unrelatedPrior,noWitness,DNA,F,mri,rating,79,4.402
20075,16,29,unrelatedPrior,noWitness,DNA,F,mri,rate_punishment,85,4.048
20075,17,3,relatedPrior,noWitness,noPhys,F,mri,rating,5,4.044
20075,17,3,relatedPrior,noWitness,noPhys,F,mri,rate_punishment,11,1.795
20075,18,20,unrelatedPrior,isWitness,DNA,F,mri,rating,70,3.913
20075,18,20,unrelatedPrior,isWitness,DNA,F,mri,rate_punishment,19,3.337
20075,19,9,relatedPrior,isWitness,noPhys,F,mri,rating,33,2.433
20075,19,9,relatedPrior,isWitness,noPhys,F,mri,rate_punishment,10,1.68
20075,20,26,relatedPrior,isWitness,noPhys,F,mri,rating,100,2.763
20075,20,26,relatedPrior,isWitness,noPhys,F,mri,rate_punishment,94,3.275
20075,21,13,unrelatedPrior,isWitness,DNA,F,mri,rating,100,3.052
20075,21,13,unrelatedPrior,isWitness,DNA,F,mri,rate_punishment,25,2.467
20075,22,14,noPrior,isWitness,DNA,F,mri,rating,100,3.205
20075,22,14,noPrior,isWitness,DNA,F,mri,rate_punishment,100,3.684
20075,23,17,noPrior,isWitness,nonDNA,F,mri,rating,99,3.122
20075,23,17,noPrior,isWitness,nonDNA,F,mri,rate_punishment,87,3.217
20075,24,22,unrelatedPrior,isWitness,nonDNA,F,mri,rating,100,3.016
20075,24,22,unrelatedPrior,isWitness,nonDNA,F,mri,rate_punishment,41,2.44
20075,25,33,noPrior,isWitness,DNA,F,mri,rating,95,2.914
20075,25,33,noPrior,isWitness,DNA,F,mri,rate_punishment,86,3.772
20075,26,32,unrelatedPrior,noWitness,noPhys,F,mri,rating,62,2.665
20075,26,32,unrelatedPrior,noWitness,noPhys,F,mri,rate_punishment,58,5.656
20075,27,15,unrelatedPrior,noWitness,nonDNA,F,mri,rating,66,2.787
20075,27,15,unrelatedPrior,noWitness,nonDNA,F,mri,rate_punishment,17,3.576
20075,28,1,noPrior,isWitness,DNA,F,mri,rating,85,3.489
20075,28,1,noPrior,isWitness,DNA,F,mri,rate_punishment,49,2.066
20075,29,10,unrelatedPrior,noWitness,DNA,F,mri,rating,100,3.208
20075,29,10,unrelatedPrior,noWitness,DNA,F,mri,rate_punishment,82,2.522
20075,30,7,noPrior,isWitness,DNA,F,mri,rating,100,2.972
20075,30,7,noPrior,isWitness,DNA,F,mri,rate_punishment,100,2.66
20075,31,8,relatedPrior,noWitness,nonDNA,F,mri,rating,72,2.307
20075,31,8,relatedPrior,noWitness,nonDNA,F,mri,rate_punishment,38,1.801
20075,32,16,noPrior,isWitness,DNA,F,mri,rating,100,2.743
20075,32,16,noPrior,isWitness,DNA,F,mri,rate_punishment,100,2.475
20075,33,18,relatedPrior,isWitness,noPhys,F,mri,rating,76,2.405
20075,33,18,relatedPrior,isWitness,noPhys,F,mri,rate_punishment,59,2.967
20107,1,26,noPrior,isWitness,DNA,F,mri,rating,100,3.212
20107,1,26,noPrior,isWitness,DNA,F,mri,rate_punishment,82,4.186
20107,2,32,relatedPrior,isWitness,nonDNA,F,mri,rating,100,2.512
20107,2,32,relatedPrior,isWitness,nonDNA,F,mri,rate_punishment,86,4.194
20107,3,6,unrelatedPrior,noWitness,nonDNA,F,mri,rating,53,2.397
20107,3,6,unrelatedPrior,noWitness,nonDNA,F,mri,rate_punishment,26,2.011
20107,4,12,unrelatedPrior,isWitness,noPhys,F,mri,rating,0,1.213
20107,4,12,unrelatedPrior,isWitness,noPhys,F,mri,rate_punishment,9,2.678
20107,5,31,noPrior,noWitness,noPhys,F,mri,rating,0,2.261
20107,5,31,noPrior,noWitness,noPhys,F,mri,rate_punishment,0,1.145
20107,6,11,noPrior,noWitness,noPhys,F,mri,rating,0,1.347
20107,6,11,noPrior,noWitness,noPhys,F,mri,rate_punishment,0,1.364
20107,7,2,relatedPrior,noWitness,nonDNA,F,mri,rating,54,1.947
20107,7,2,relatedPrior,noWitness,nonDNA,F,mri,rate_punishment,44,2.928
20107,8,1,unrelatedPrior,noWitness,noPhys,F,mri,rating,12,1.365
20107,8,1,unrelatedPrior,noWitness,noPhys,F,mri,rate_punishment,15,1.764
20107,9,29,unrelatedPrior,noWitness,noPhys,F,mri,rating,11,2.53
20107,9,29,unrelatedPrior,noWitness,noPhys,F,mri,rate_punishment,23,3.428
20107,10,14,noPrior,noWitness,noPhys,F,mri,rating,7,2.546
20107,10,14,noPrior,noWitness,noPhys,F,mri,rate_punishment,49,2.528
20107,11,5,relatedPrior,isWitness,noPhys,F,mri,rating,51,3.113
20107,11,5,relatedPrior,isWitness,noPhys,F,mri,rate_punishment,67,2.444
20107,12,16,noPrior,isWitness,noPhys,F,mri,rating,39,2.773
20107,12,16,noPrior,isWitness,noPhys,F,mri,rate_punishment,69,5.39
20107,13,7,noPrior,isWitness,DNA,F,mri,rating,100,2.663
20107,13,7,noPrior,isWitness,DNA,F,mri,rate_punishment,100,2.861
20107,14,33,relatedPrior,isWitness,DNA,F,mri,rating,100,2.746
20107,14,33,relatedPrior,isWitness,DNA,F,mri,rate_punishment,55,3.025
20107,15,17,unrelatedPrior,isWitness,nonDNA,F,mri,rating,52,3.016
20107,15,17,unrelatedPrior,isWitness,nonDNA,F,mri,rate_punishment,54,3.22
20107,16,8,unrelatedPrior,isWitness,noPhys,F,mri,rating,57,4.136
20107,16,8,unrelatedPrior,isWitness,noPhys,F,mri,rate_punishment,29,2.826
20107,17,18,noPrior,noWitness,DNA,F,mri,rating,38,2.609
20107,17,18,noPrior,noWitness,DNA,F,mri,rate_punishment,44,3.529
20107,18,4,unrelatedPrior,isWitness,noPhys,F,mri,rating,60,4.209
20107,18,4,unrelatedPrior,isWitness,noPhys,F,mri,rate_punishment,21,4.358
20107,19,21,relatedPrior,isWitness,noPhys,F,mri,rating,59,3.216
20107,19,21,relatedPrior,isWitness,noPhys,F,mri,rate_punishment,0,0.608
20107,20,27,unrelatedPrior,isWitness,DNA,F,mri,rating,77,3.48
20107,20,27,unrelatedPrior,isWitness,DNA,F,mri,rate_punishment,48,2.487
20107,21,10,noPrior,isWitness,noPhys,F,mri,rating,49,5.428
20107,21,10,noPrior,isWitness,noPhys,F,mri,rate_punishment,100,4.333
20107,22,23,noPrior,noWitness,nonDNA,F,mri,rating,74,3.202
20107,22,23,noPrior,noWitness,nonDNA,F,mri,rate_punishment,100,4.017
20107,23,22,unrelatedPrior,isWitness,DNA,F,mri,rating,100,3.268
20107,23,22,unrelatedPrior,isWitness,DNA,F,mri,rate_punishment,27,4.253
20107,24,9,unrelatedPrior,isWitness,noPhys,F,mri,rating,65,5.23
20107,24,9,unrelatedPrior,isWitness,noPhys,F,mri,rate_punishment,40,2.67
20107,25,19,noPrior,noWitness,DNA,F,mri,rating,68,3.303
20107,25,19,noPrior,noWitness,DNA,F,mri,rate_punishment,23,2.437
20107,26,25,relatedPrior,noWitness,noPhys,F,mri,rating,25,4.205
20107,26,25,relatedPrior,noWitness,noPhys,F,mri,rate_punishment,29,3.416
20107,27,30,relatedPrior,noWitness,DNA,F,mri,rating,77,3.053
20107,27,30,relatedPrior,noWitness,DNA,F,mri,rate_punishment,79,3.889
20107,28,28,relatedPrior,noWitness,nonDNA,T,mri,rating,21,4.206
20107,28,28,relatedPrior,noWitness,nonDNA,T,mri,rate_punishment,60,6
20107,29,13,unrelatedPrior,isWitness,nonDNA,F,mri,rating,100,3.285
20107,29,13,unrelatedPrior,isWitness,nonDNA,F,mri,rate_punishment,29,2.518
20107,30,3,relatedPrior,noWitness,nonDNA,F,mri,rating,100,3.641
20107,30,3,relatedPrior,noWitness,nonDNA,F,mri,rate_punishment,23,2.287
20107,31,15,noPrior,isWitness,nonDNA,F,mri,rating,100,3.463
20107,31,15,noPrior,isWitness,nonDNA,F,mri,rate_punishment,29,3.073
20107,32,24,relatedPrior,isWitness,noPhys,F,mri,rating,17,1.637
20107,32,24,relatedPrior,isWitness,noPhys,F,mri,rate_punishment,51,4.022
20107,33,20,relatedPrior,noWitness,noPhys,F,mri,rating,35,3.115
20107,33,20,relatedPrior,noWitness,noPhys,F,mri,rate_punishment,89,3.13
20074,1,19,unrelatedPrior,noWitness,nonDNA,F,mri,rating,82,4.845
20074,1,19,unrelatedPrior,noWitness,nonDNA,F,mri,rate_punishment,0,5.244
20074,2,13,noPrior,isWitness,nonDNA,F,mri,rating,100,3.83
20074,2,13,noPrior,isWitness,nonDNA,F,mri,rate_punishment,60,3.577
20074,3,18,noPrior,noWitness,noPhys,F,mri,rating,19,2.113
20074,3,18,noPrior,noWitness,noPhys,F,mri,rate_punishment,12,1.461
20074,4,14,noPrior,noWitness,nonDNA,F,mri,rating,99,3.663
20074,4,14,noPrior,noWitness,nonDNA,F,mri,rate_punishment,68,2.91
20074,5,16,unrelatedPrior,noWitness,DNA,F,mri,rating,96,3.396
20074,5,16,unrelatedPrior,noWitness,DNA,F,mri,rate_punishment,83,3.761
20074,6,27,unrelatedPrior,noWitness,nonDNA,F,mri,rating,66,3.662
20074,6,27,unrelatedPrior,noWitness,nonDNA,F,mri,rate_punishment,32,2.345
20074,7,1,unrelatedPrior,isWitness,nonDNA,F,mri,rating,78,3.143
20074,7,1,unrelatedPrior,isWitness,nonDNA,F,mri,rate_punishment,53,2.195
20074,8,17,noPrior,isWitness,DNA,F,mri,rating,77,2.263
20074,8,17,noPrior,isWitness,DNA,F,mri,rate_punishment,63,2.893
20074,9,10,unrelatedPrior,isWitness,noPhys,F,mri,rating,47,2.23
20074,9,10,unrelatedPrior,isWitness,noPhys,F,mri,rate_punishment,90,4.695
20074,10,30,unrelatedPrior,noWitness,noPhys,F,mri,rating,20,3.378
20074,10,30,unrelatedPrior,noWitness,noPhys,F,mri,rate_punishment,54,2.893
20074,11,31,relatedPrior,isWitness,noPhys,F,mri,rating,96,2.96
20074,11,31,relatedPrior,isWitness,noPhys,F,mri,rate_punishment,0,1.027
20074,12,33,relatedPrior,isWitness,DNA,F,mri,rating,96,2.913
20074,12,33,relatedPrior,isWitness,DNA,F,mri,rate_punishment,59,1.977
20074,13,28,unrelatedPrior,isWitness,noPhys,F,mri,rating,55,2.529
20074,13,28,unrelatedPrior,isWitness,noPhys,F,mri,rate_punishment,60,2.061
20074,14,15,relatedPrior,isWitness,nonDNA,F,mri,rating,100,3.027
20074,14,15,relatedPrior,isWitness,nonDNA,F,mri,rate_punishment,52,4.093
20074,15,29,relatedPrior,isWitness,DNA,F,mri,rating,100,2.847
20074,15,29,relatedPrior,isWitness,DNA,F,mri,rate_punishment,57,2.028
20074,16,25,noPrior,isWitness,nonDNA,F,mri,rating,83,2.396
20074,16,25,noPrior,isWitness,nonDNA,F,mri,rate_punishment,34,2.044
20074,17,32,relatedPrior,noWitness,nonDNA,F,mri,rating,91,2.544
20074,17,32,relatedPrior,noWitness,nonDNA,F,mri,rate_punishment,66,1.894
20074,18,21,unrelatedPrior,isWitness,noPhys,F,mri,rating,71,3.18
20074,18,21,unrelatedPrior,isWitness,noPhys,F,mri,rate_punishment,59,4.578
20074,19,5,unrelatedPrior,noWitness,nonDNA,F,mri,rating,51,2.513
20074,19,5,unrelatedPrior,noWitness,nonDNA,F,mri,rate_punishment,86,3.728
20074,20,23,unrelatedPrior,noWitness,DNA,F,mri,rating,94,3.742
20074,20,23,unrelatedPrior,noWitness,DNA,F,mri,rate_punishment,95,4.945
20074,21,9,noPrior,isWitness,noPhys,F,mri,rating,42,1.746
20074,21,9,noPrior,isWitness,noPhys,F,mri,rate_punishment,38,4.06
20074,22,24,unrelatedPrior,isWitness,DNA,F,mri,rating,64,2.33
20074,22,24,unrelatedPrior,isWitness,DNA,F,mri,rate_punishment,53,2.478
20074,23,2,relatedPrior,noWitness,nonDNA,F,mri,rating,78,2.396
20074,23,2,relatedPrior,noWitness,nonDNA,F,mri,rate_punishment,37,2.462
20074,24,22,noPrior,isWitness,noPhys,F,mri,rating,63,2.198
20074,24,22,noPrior,isWitness,noPhys,F,mri,rate_punishment,0,0.831
20074,25,11,relatedPrior,isWitness,nonDNA,F,mri,rating,86,3.688
20074,25,11,relatedPrior,isWitness,nonDNA,F,mri,rate_punishment,76,4.686
20074,26,8,unrelatedPrior,isWitness,nonDNA,F,mri,rating,81,2.485
20074,26,8,unrelatedPrior,isWitness,nonDNA,F,mri,rate_punishment,48,2.436
20074,27,26,noPrior,noWitness,nonDNA,F,mri,rating,55,2.54
20074,27,26,noPrior,noWitness,nonDNA,F,mri,rate_punishment,100,3.512
20074,28,3,noPrior,noWitness,noPhys,F,mri,rating,21,2.224
20074,28,3,noPrior,noWitness,noPhys,F,mri,rate_punishment,15,4.44
20074,29,20,noPrior,isWitness,nonDNA,F,mri,rating,57,4.146
20074,29,20,noPrior,isWitness,nonDNA,F,mri,rate_punishment,94,3.21
20074,30,4,noPrior,isWitness,nonDNA,F,mri,rating,38,2.508
20074,30,4,noPrior,isWitness,nonDNA,F,mri,rate_punishment,54,3.205
20074,31,6,noPrior,isWitness,nonDNA,F,mri,rating,57,2.388
20074,31,6,noPrior,isWitness,nonDNA,F,mri,rate_punishment,36,2.411
20074,32,7,relatedPrior,isWitness,nonDNA,F,mri,rating,78,3.569
20074,32,7,relatedPrior,isWitness,nonDNA,F,mri,rate_punishment,100,3.29
20074,33,12,relatedPrior,isWitness,DNA,F,mri,rating,98,2.574
20074,33,12,relatedPrior,isWitness,DNA,F,mri,rate_punishment,43,1.86
19980,1,9,noPrior,noWitness,DNA,F,mri,rating,0,2.127
19980,1,9,noPrior,noWitness,DNA,F,mri,rate_punishment,0,3.423
19980,2,17,noPrior,isWitness,DNA,F,mri,rating,26,1.822
19980,2,17,noPrior,isWitness,DNA,F,mri,rate_punishment,68,4.69
19980,3,16,noPrior,isWitness,noPhys,F,mri,rating,16,1.808
19980,3,16,noPrior,isWitness,noPhys,F,mri,rate_punishment,95,2.308
19980,4,20,unrelatedPrior,noWitness,DNA,F,mri,rating,60,2.196
19980,4,20,unrelatedPrior,noWitness,DNA,F,mri,rate_punishment,90,2.763
19980,5,27,relatedPrior,isWitness,noPhys,F,mri,rating,18,1.108
19980,5,27,relatedPrior,isWitness,noPhys,F,mri,rate_punishment,43,4.351
19980,6,18,unrelatedPrior,noWitness,DNA,F,mri,rating,19,4.33
19980,6,18,unrelatedPrior,noWitness,DNA,F,mri,rate_punishment,50,2.573
19980,7,33,relatedPrior,noWitness,nonDNA,F,mri,rating,31,1.888
19980,7,33,relatedPrior,noWitness,nonDNA,F,mri,rate_punishment,87,2.75
19980,8,8,noPrior,noWitness,noPhys,F,mri,rating,29,2.242
19980,8,8,noPrior,noWitness,noPhys,F,mri,rate_punishment,42,3.127
19980,9,3,relatedPrior,noWitness,DNA,F,mri,rating,40,2.31
19980,9,3,relatedPrior,noWitness,DNA,F,mri,rate_punishment,34,3.216
19980,10,28,noPrior,isWitness,noPhys,F,mri,rating,10,2.127
19980,10,28,noPrior,isWitness,noPhys,F,mri,rate_punishment,95,2.942
19980,11,21,unrelatedPrior,noWitness,DNA,F,mri,rating,44,1.355
19980,11,21,unrelatedPrior,noWitness,DNA,F,mri,rate_punishment,86,2.539
19980,12,11,noPrior,noWitness,DNA,F,mri,rating,64,1.927
19980,12,11,noPrior,noWitness,DNA,F,mri,rate_punishment,91,3.176
19980,13,32,noPrior,isWitness,noPhys,F,mri,rating,13,1.966
19980,13,32,noPrior,isWitness,noPhys,F,mri,rate_punishment,90,3.777
19980,14,19,relatedPrior,noWitness,DNA,F,mri,rating,86,2.344
19980,14,19,relatedPrior,noWitness,DNA,F,mri,rate_punishment,48,2.624
19980,15,1,noPrior,isWitness,DNA,F,mri,rating,91,2.362
19980,15,1,noPrior,isWitness,DNA,F,mri,rate_punishment,39,2.37
19980,16,24,noPrior,isWitness,noPhys,F,mri,rating,33,1.103
19980,16,24,noPrior,isWitness,noPhys,F,mri,rate_punishment,29,2.574
19980,17,7,relatedPrior,isWitness,DNA,F,mri,rating,93,2.218
19980,17,7,relatedPrior,isWitness,DNA,F,mri,rate_punishment,97,2.94
19980,18,13,noPrior,noWitness,noPhys,F,mri,rating,9,1.011
19980,18,13,noPrior,noWitness,noPhys,F,mri,rate_punishment,35,2.365
19980,19,5,unrelatedPrior,isWitness,nonDNA,F,mri,rating,72,1.644
19980,19,5,unrelatedPrior,isWitness,nonDNA,F,mri,rate_punishment,59,1.965
19980,20,29,relatedPrior,isWitness,noPhys,F,mri,rating,74,1.596
19980,20,29,relatedPrior,isWitness,noPhys,F,mri,rate_punishment,70,3.542
19980,21,2,noPrior,isWitness,nonDNA,F,mri,rating,93,2.086
19980,21,2,noPrior,isWitness,nonDNA,F,mri,rate_punishment,43,2.52
19980,22,4,noPrior,isWitness,noPhys,F,mri,rating,48,1.996
19980,22,4,noPrior,isWitness,noPhys,F,mri,rate_punishment,44,3.108
19980,23,14,noPrior,isWitness,DNA,F,mri,rating,94,2.127
19980,23,14,noPrior,isWitness,DNA,F,mri,rate_punishment,95,2.825
19980,24,22,relatedPrior,noWitness,DNA,F,mri,rating,96,2.071
19980,24,22,relatedPrior,noWitness,DNA,F,mri,rate_punishment,62,1.809
19980,25,6,relatedPrior,isWitness,noPhys,F,mri,rating,92,1.813
19980,25,6,relatedPrior,isWitness,noPhys,F,mri,rate_punishment,28,2.059
19980,26,15,relatedPrior,noWitness,noPhys,F,mri,rating,47,1.443
19980,26,15,relatedPrior,noWitness,noPhys,F,mri,rate_punishment,46,3.491
19980,27,26,noPrior,noWitness,nonDNA,F,mri,rating,68,2.16
19980,27,26,noPrior,noWitness,nonDNA,F,mri,rate_punishment,96,2.561
19980,28,10,noPrior,isWitness,noPhys,F,mri,rating,20,1.99
19980,28,10,noPrior,isWitness,noPhys,F,mri,rate_punishment,93,2.86
19980,29,25,noPrior,noWitness,noPhys,F,mri,rating,8,1.995
19980,29,25,noPrior,noWitness,noPhys,F,mri,rate_punishment,28,3.059
19980,30,31,unrelatedPrior,isWitness,nonDNA,F,mri,rating,64,2.078
19980,30,31,unrelatedPrior,isWitness,nonDNA,F,mri,rate_punishment,43,2.208
19980,31,30,unrelatedPrior,isWitness,nonDNA,F,mri,rating,80,2.229
19980,31,30,unrelatedPrior,isWitness,nonDNA,F,mri,rate_punishment,91,3.827
19980,32,23,unrelatedPrior,noWitness,DNA,F,mri,rating,69,1.912
19980,32,23,unrelatedPrior,noWitness,DNA,F,mri,rate_punishment,89,1.844
19980,33,12,noPrior,isWitness,nonDNA,F,mri,rating,75,1.892
19980,33,12,noPrior,isWitness,nonDNA,F,mri,rate_punishment,35,0.811
20010,1,27,noPrior,isWitness,nonDNA,T,mri,rating,71,3.362
20010,1,27,noPrior,isWitness,nonDNA,T,mri,rate_punishment,61,6
20010,2,19,relatedPrior,isWitness,nonDNA,F,mri,rating,71,2.705
20010,2,19,relatedPrior,isWitness,nonDNA,F,mri,rate_punishment,66,2.769
20010,3,33,unrelatedPrior,isWitness,noPhys,F,mri,rating,35,2.136
20010,3,33,unrelatedPrior,isWitness,noPhys,F,mri,rate_punishment,39,3.327
20010,4,31,noPrior,isWitness,noPhys,F,mri,rating,28,1.968
20010,4,31,noPrior,isWitness,noPhys,F,mri,rate_punishment,30,3.258
20010,5,13,unrelatedPrior,isWitness,noPhys,F,mri,rating,49,2.447
20010,5,13,unrelatedPrior,isWitness,noPhys,F,mri,rate_punishment,63,2.725
20010,6,17,noPrior,noWitness,nonDNA,F,mri,rating,47,1.813
20010,6,17,noPrior,noWitness,nonDNA,F,mri,rate_punishment,36,2.206
20010,7,11,unrelatedPrior,noWitness,noPhys,F,mri,rating,0,0.968
20010,7,11,unrelatedPrior,noWitness,noPhys,F,mri,rate_punishment,71,3.46
20010,8,21,noPrior,noWitness,DNA,F,mri,rating,52,2.46
20010,8,21,noPrior,noWitness,DNA,F,mri,rate_punishment,76,3.248
20010,9,28,noPrior,noWitness,noPhys,F,mri,rating,31,1.895
20010,9,28,noPrior,noWitness,noPhys,F,mri,rate_punishment,61,2.776
20010,10,12,noPrior,isWitness,DNA,F,mri,rating,100,2.252
20010,10,12,noPrior,isWitness,DNA,F,mri,rate_punishment,53,2.924
20010,11,4,relatedPrior,isWitness,nonDNA,F,mri,rating,100,2.412
20010,11,4,relatedPrior,isWitness,nonDNA,F,mri,rate_punishment,54,2.175
20010,12,22,relatedPrior,noWitness,noPhys,F,mri,rating,16,3.679
20010,12,22,relatedPrior,noWitness,noPhys,F,mri,rate_punishment,49,2.653
20010,13,16,relatedPrior,noWitness,nonDNA,F,mri,rating,84,2.48
20010,13,16,relatedPrior,noWitness,nonDNA,F,mri,rate_punishment,97,2.393
20010,14,14,unrelatedPrior,noWitness,nonDNA,F,mri,rating,77,2.245
20010,14,14,unrelatedPrior,noWitness,nonDNA,F,mri,rate_punishment,49,1.444
20010,15,32,unrelatedPrior,noWitness,DNA,F,mri,rating,63,2.496
20010,15,32,unrelatedPrior,noWitness,DNA,F,mri,rate_punishment,65,2.278
20010,16,10,unrelatedPrior,noWitness,nonDNA,F,mri,rating,82,2.195
20010,16,10,unrelatedPrior,noWitness,nonDNA,F,mri,rate_punishment,92,3.592
20010,17,5,relatedPrior,isWitness,nonDNA,F,mri,rating,100,2.623
20010,17,5,relatedPrior,isWitness,nonDNA,F,mri,rate_punishment,89,2.927
20010,18,6,relatedPrior,noWitness,DNA,F,mri,rating,80,2.377
20010,18,6,relatedPrior,noWitness,DNA,F,mri,rate_punishment,49,2.21
20010,19,30,unrelatedPrior,isWitness,noPhys,F,mri,rating,41,1.606
20010,19,30,unrelatedPrior,isWitness,noPhys,F,mri,rate_punishment,72,3.589
20010,20,15,unrelatedPrior,isWitness,DNA,F,mri,rating,74,2.058
20010,20,15,unrelatedPrior,isWitness,DNA,F,mri,rate_punishment,41,1.743
20010,21,20,noPrior,isWitness,DNA,F,mri,rating,100,2.373
20010,21,20,noPrior,isWitness,DNA,F,mri,rate_punishment,100,2.584
20010,22,25,unrelatedPrior,noWitness,DNA,F,mri,rating,59,2.622
20010,22,25,unrelatedPrior,noWitness,DNA,F,mri,rate_punishment,0,0.711
20010,23,26,relatedPrior,noWitness,DNA,F,mri,rating,100,3.016
20010,23,26,relatedPrior,noWitness,DNA,F,mri,rate_punishment,100,2.714
20010,24,2,unrelatedPrior,isWitness,nonDNA,F,mri,rating,79,2.839
20010,24,2,unrelatedPrior,isWitness,nonDNA,F,mri,rate_punishment,58,2.2
20010,25,24,relatedPrior,noWitness,nonDNA,F,mri,rating,100,2.467
20010,25,24,relatedPrior,noWitness,nonDNA,F,mri,rate_punishment,54,3.443
20010,26,9,relatedPrior,noWitness,DNA,F,mri,rating,63,1.826
20010,26,9,relatedPrior,noWitness,DNA,F,mri,rate_punishment,58,1.637
20010,27,1,unrelatedPrior,isWitness,noPhys,F,mri,rating,22,1.876
20010,27,1,unrelatedPrior,isWitness,noPhys,F,mri,rate_punishment,51,2.604
20010,28,7,unrelatedPrior,isWitness,noPhys,F,mri,rating,59,2.503
20010,28,7,unrelatedPrior,isWitness,noPhys,F,mri,rate_punishment,95,2.835
20010,29,29,noPrior,noWitness,nonDNA,F,mri,rating,79,2.026
20010,29,29,noPrior,noWitness,nonDNA,F,mri,rate_punishment,55,2.886
20010,30,8,relatedPrior,noWitness,noPhys,F,mri,rating,50,2.02
20010,30,8,relatedPrior,noWitness,noPhys,F,mri,rate_punishment,47,2.155
20010,31,3,relatedPrior,isWitness,nonDNA,F,mri,rating,100,2.477
20010,31,3,relatedPrior,isWitness,nonDNA,F,mri,rate_punishment,52,3.939
20010,32,23,relatedPrior,noWitness,nonDNA,F,mri,rating,52,2.722
20010,32,23,relatedPrior,noWitness,nonDNA,F,mri,rate_punishment,43,1.649
20010,33,18,noPrior,isWitness,DNA,F,mri,rating,100,2.565
20010,33,18,noPrior,isWitness,DNA,F,mri,rate_punishment,58,1.873
19977,1,17,unrelatedPrior,noWitness,noPhys,F,mri,rating,0,1.797
19977,1,17,unrelatedPrior,noWitness,noPhys,F,mri,rate_punishment,64,4.541
19977,2,10,relatedPrior,isWitness,DNA,F,mri,rating,70,2.075
19977,2,10,relatedPrior,isWitness,DNA,F,mri,rate_punishment,78,3.378
19977,3,14,noPrior,noWitness,nonDNA,F,mri,rating,46,2.313
19977,3,14,noPrior,noWitness,nonDNA,F,mri,rate_punishment,39,3.096
19977,4,8,unrelatedPrior,noWitness,nonDNA,F,mri,rating,50,2.864
19977,4,8,unrelatedPrior,noWitness,nonDNA,F,mri,rate_punishment,42,3.327
19977,5,7,unrelatedPrior,isWitness,DNA,F,mri,rating,88,2.291
19977,5,7,unrelatedPrior,isWitness,DNA,F,mri,rate_punishment,68,3.804
19977,6,33,noPrior,isWitness,nonDNA,F,mri,rating,53,2.971
19977,6,33,noPrior,isWitness,nonDNA,F,mri,rate_punishment,63,3.422
19977,7,22,relatedPrior,noWitness,noPhys,F,mri,rating,19,1.987
19977,7,22,relatedPrior,noWitness,noPhys,F,mri,rate_punishment,40,2.642
19977,8,5,noPrior,noWitness,DNA,F,mri,rating,71,2.484
19977,8,5,noPrior,noWitness,DNA,F,mri,rate_punishment,63,3.566
19977,9,13,unrelatedPrior,isWitness,DNA,F,mri,rating,96,3.27
19977,9,13,unrelatedPrior,isWitness,DNA,F,mri,rate_punishment,25,3.394
19977,10,3,noPrior,noWitness,noPhys,F,mri,rating,0,1.047
19977,10,3,noPrior,noWitness,noPhys,F,mri,rate_punishment,26,3.695
19977,11,9,noPrior,isWitness,noPhys,F,mri,rating,22,2.267
19977,11,9,noPrior,isWitness,noPhys,F,mri,rate_punishment,45,3.51
19977,12,24,unrelatedPrior,isWitness,noPhys,F,mri,rating,17,1.469
19977,12,24,unrelatedPrior,isWitness,noPhys,F,mri,rate_punishment,47,3.433
19977,13,27,relatedPrior,isWitness,nonDNA,F,mri,rating,72,3.068
19977,13,27,relatedPrior,isWitness,nonDNA,F,mri,rate_punishment,47,2.854
19977,14,16,relatedPrior,isWitness,noPhys,F,mri,rating,57,2.882
19977,14,16,relatedPrior,isWitness,noPhys,F,mri,rate_punishment,83,3.526
19977,15,19,unrelatedPrior,isWitness,nonDNA,F,mri,rating,81,2.974
19977,15,19,unrelatedPrior,isWitness,nonDNA,F,mri,rate_punishment,39,3.484
19977,16,2,relatedPrior,noWitness,DNA,F,mri,rating,85,3.105
19977,16,2,relatedPrior,noWitness,DNA,F,mri,rate_punishment,41,3.325
19977,17,28,relatedPrior,isWitness,DNA,F,mri,rating,73,3.532
19977,17,28,relatedPrior,isWitness,DNA,F,mri,rate_punishment,95,3.34
19977,18,20,relatedPrior,isWitness,DNA,F,mri,rating,88,2.826
19977,18,20,relatedPrior,isWitness,DNA,F,mri,rate_punishment,70,2.682
19977,19,18,relatedPrior,isWitness,noPhys,F,mri,rating,41,3.426
19977,19,18,relatedPrior,isWitness,noPhys,F,mri,rate_punishment,48,5.11
19977,20,25,noPrior,isWitness,DNA,F,mri,rating,99,2.737
19977,20,25,noPrior,isWitness,DNA,F,mri,rate_punishment,41,5.089
19977,21,11,noPrior,isWitness,noPhys,T,mri,rating,44,3.898
19977,21,11,noPrior,isWitness,noPhys,T,mri,rate_punishment,58,6
19977,22,31,unrelatedPrior,noWitness,DNA,F,mri,rating,73,2.571
19977,22,31,unrelatedPrior,noWitness,DNA,F,mri,rate_punishment,60,2.687
19977,23,1,relatedPrior,isWitness,nonDNA,F,mri,rating,100,2.911
19977,23,1,relatedPrior,isWitness,nonDNA,F,mri,rate_punishment,44,2.774
19977,24,30,relatedPrior,isWitness,DNA,F,mri,rating,86,2.789
19977,24,30,relatedPrior,isWitness,DNA,F,mri,rate_punishment,91,3.524
19977,25,4,unrelatedPrior,noWitness,nonDNA,F,mri,rating,52,4.07
19977,25,4,unrelatedPrior,noWitness,nonDNA,F,mri,rate_punishment,31,3.179
19977,26,29,noPrior,noWitness,noPhys,F,mri,rating,0,0.906
19977,26,29,noPrior,noWitness,noPhys,F,mri,rate_punishment,47,3.269
19977,27,15,unrelatedPrior,noWitness,noPhys,F,mri,rating,12,1.341
19977,27,15,unrelatedPrior,noWitness,noPhys,F,mri,rate_punishment,37,3.675
19977,28,12,relatedPrior,noWitness,noPhys,F,mri,rating,12,1.45
19977,28,12,relatedPrior,noWitness,noPhys,F,mri,rate_punishment,34,2.566
19977,29,23,unrelatedPrior,noWitness,noPhys,F,mri,rating,0,1
19977,29,23,unrelatedPrior,noWitness,noPhys,F,mri,rate_punishment,74,3.67
19977,30,6,relatedPrior,noWitness,nonDNA,F,mri,rating,53,2.29
19977,30,6,relatedPrior,noWitness,nonDNA,F,mri,rate_punishment,35,3.001
19977,31,21,unrelatedPrior,noWitness,noPhys,F,mri,rating,0,0.968
19977,31,21,unrelatedPrior,noWitness,noPhys,F,mri,rate_punishment,74,2.898
19977,32,32,unrelatedPrior,noWitness,noPhys,F,mri,rating,0,1.331
19977,32,32,unrelatedPrior,noWitness,noPhys,F,mri,rate_punishment,78,3.473
19977,33,26,unrelatedPrior,noWitness,nonDNA,F,mri,rating,74,2.946
19977,33,26,unrelatedPrior,noWitness,nonDNA,F,mri,rate_punishment,100,2.964
20073,1,32,unrelatedPrior,noWitness,DNA,T,mri,rating,0,1.307
20073,1,32,unrelatedPrior,noWitness,DNA,T,mri,rate_punishment,55,6
20073,2,23,noPrior,isWitness,noPhys,T,mri,rating,14,2.579
20073,2,23,noPrior,isWitness,noPhys,T,mri,rate_punishment,90,6
20073,3,19,unrelatedPrior,isWitness,nonDNA,F,mri,rating,74,3.497
20073,3,19,unrelatedPrior,isWitness,nonDNA,F,mri,rate_punishment,18,3.26
20073,4,27,unrelatedPrior,noWitness,noPhys,F,mri,rating,19,3.227
20073,4,27,unrelatedPrior,noWitness,noPhys,F,mri,rate_punishment,46,1.893
20073,5,30,unrelatedPrior,noWitness,noPhys,F,mri,rating,0,1.178
20073,5,30,unrelatedPrior,noWitness,noPhys,F,mri,rate_punishment,41,3.427
20073,6,10,unrelatedPrior,isWitness,DNA,F,mri,rating,96,3.096
20073,6,10,unrelatedPrior,isWitness,DNA,F,mri,rate_punishment,89,2.964
20073,7,4,noPrior,isWitness,noPhys,F,mri,rating,59,3.628
20073,7,4,noPrior,isWitness,noPhys,F,mri,rate_punishment,50,4.394
20073,8,7,relatedPrior,noWitness,noPhys,F,mri,rating,48,2.565
20073,8,7,relatedPrior,noWitness,noPhys,F,mri,rate_punishment,100,2.194
20073,9,16,noPrior,isWitness,noPhys,F,mri,rating,44,1.676
20073,9,16,noPrior,isWitness,noPhys,F,mri,rate_punishment,97,4.908
20073,10,6,relatedPrior,isWitness,noPhys,F,mri,rating,55,4.336
20073,10,6,relatedPrior,isWitness,noPhys,F,mri,rate_punishment,38,4.293
20073,11,20,noPrior,noWitness,noPhys,F,mri,rating,39,2.51
20073,11,20,noPrior,noWitness,noPhys,F,mri,rate_punishment,52,1.778
20073,12,5,relatedPrior,isWitness,nonDNA,T,mri,rating,100,3.346
20073,12,5,relatedPrior,isWitness,nonDNA,T,mri,rate_punishment,82,6
20073,13,22,relatedPrior,noWitness,noPhys,F,mri,rating,10,2.296
20073,13,22,relatedPrior,noWitness,noPhys,F,mri,rate_punishment,24,3.611
20073,14,21,noPrior,isWitness,noPhys,F,mri,rating,12,1.579
20073,14,21,noPrior,isWitness,noPhys,F,mri,rate_punishment,56,3.844
20073,15,3,relatedPrior,isWitness,noPhys,F,mri,rating,10,2.112
20073,15,3,relatedPrior,isWitness,noPhys,F,mri,rate_punishment,22,2.709
20073,16,28,noPrior,noWitness,nonDNA,F,mri,rating,9,3.529
20073,16,28,noPrior,noWitness,nonDNA,F,mri,rate_punishment,41,3.041
20073,17,13,relatedPrior,isWitness,DNA,F,mri,rating,100,2.096
20073,17,13,relatedPrior,isWitness,DNA,F,mri,rate_punishment,38,3.376
20073,18,33,unrelatedPrior,noWitness,DNA,F,mri,rating,38,2.927
20073,18,33,unrelatedPrior,noWitness,DNA,F,mri,rate_punishment,44,3.795
20073,19,9,relatedPrior,noWitness,nonDNA,F,mri,rating,75,3.096
20073,19,9,relatedPrior,noWitness,nonDNA,F,mri,rate_punishment,41,2.478
20073,20,11,relatedPrior,noWitness,nonDNA,F,mri,rating,85,2.537
20073,20,11,relatedPrior,noWitness,nonDNA,F,mri,rate_punishment,100,2.643
20073,21,14,relatedPrior,noWitness,noPhys,F,mri,rating,65,2.796
20073,21,14,relatedPrior,noWitness,noPhys,F,mri,rate_punishment,64,2.027
20073,22,31,noPrior,isWitness,noPhys,F,mri,rating,72,2.694
20073,22,31,noPrior,isWitness,noPhys,F,mri,rate_punishment,77,2.621
20073,23,25,noPrior,isWitness,nonDNA,F,mri,rating,68,2.768
20073,23,25,noPrior,isWitness,nonDNA,F,mri,rate_punishment,45,3.618
20073,24,12,unrelatedPrior,isWitness,nonDNA,F,mri,rating,74,2.996
20073,24,12,unrelatedPrior,isWitness,nonDNA,F,mri,rate_punishment,49,3.443
20073,25,17,noPrior,noWitness,nonDNA,F,mri,rating,78,3.946
20073,25,17,noPrior,noWitness,nonDNA,F,mri,rate_punishment,46,2.344
20073,26,18,unrelatedPrior,isWitness,DNA,F,mri,rating,80,3.861
20073,26,18,unrelatedPrior,isWitness,DNA,F,mri,rate_punishment,70,2.894
20073,27,8,noPrior,noWitness,noPhys,F,mri,rating,0,0.929
20073,27,8,noPrior,noWitness,noPhys,F,mri,rate_punishment,23,4.126
20073,28,29,noPrior,isWitness,DNA,F,mri,rating,50,2.844
20073,28,29,noPrior,isWitness,DNA,F,mri,rate_punishment,75,2.943
20073,29,24,relatedPrior,isWitness,DNA,F,mri,rating,64,5.911
20073,29,24,relatedPrior,isWitness,DNA,F,mri,rate_punishment,40,3.477
20073,30,26,noPrior,noWitness,nonDNA,F,mri,rating,50,2.864
20073,30,26,noPrior,noWitness,nonDNA,F,mri,rate_punishment,100,2.195
20073,31,15,unrelatedPrior,isWitness,DNA,F,mri,rating,76,2.079
20073,31,15,unrelatedPrior,isWitness,DNA,F,mri,rate_punishment,67,2.594
20073,32,1,relatedPrior,isWitness,nonDNA,F,mri,rating,91,2.913
20073,32,1,relatedPrior,isWitness,nonDNA,F,mri,rate_punishment,49,1.876
20073,33,2,noPrior,noWitness,noPhys,F,mri,rating,18,2.696
20073,33,2,noPrior,noWitness,noPhys,F,mri,rate_punishment,26,3.66
20101,1,13,unrelatedPrior,noWitness,nonDNA,F,mri,rating,71,3.642
20101,1,13,unrelatedPrior,noWitness,nonDNA,F,mri,rate_punishment,68,4.161
20101,2,5,unrelatedPrior,noWitness,DNA,F,mri,rating,100,2.759
20101,2,5,unrelatedPrior,noWitness,DNA,F,mri,rate_punishment,89,3.443
20101,3,27,relatedPrior,noWitness,noPhys,F,mri,rating,0,1.479
20101,3,27,relatedPrior,noWitness,noPhys,F,mri,rate_punishment,57,4.611
20101,4,12,unrelatedPrior,noWitness,DNA,F,mri,rating,100,2.629
20101,4,12,unrelatedPrior,noWitness,DNA,F,mri,rate_punishment,32,4.827
20101,5,21,relatedPrior,isWitness,noPhys,F,mri,rating,0,0.83
20101,5,21,relatedPrior,isWitness,noPhys,F,mri,rate_punishment,88,3.426
20101,6,29,noPrior,isWitness,nonDNA,F,mri,rating,72,2.813
20101,6,29,noPrior,isWitness,nonDNA,F,mri,rate_punishment,36,4.427
20101,7,17,relatedPrior,isWitness,nonDNA,F,mri,rating,83,2.698
20101,7,17,relatedPrior,isWitness,nonDNA,F,mri,rate_punishment,84,3.334
20101,8,28,unrelatedPrior,isWitness,noPhys,F,mri,rating,99,3.386
20101,8,28,unrelatedPrior,isWitness,noPhys,F,mri,rate_punishment,25,1.876
20101,9,19,unrelatedPrior,isWitness,noPhys,F,mri,rating,56,2.179
20101,9,19,unrelatedPrior,isWitness,noPhys,F,mri,rate_punishment,41,3.243
20101,10,4,noPrior,noWitness,nonDNA,F,mri,rating,22,2.413
20101,10,4,noPrior,noWitness,nonDNA,F,mri,rate_punishment,31,5.794
20101,11,2,unrelatedPrior,noWitness,nonDNA,F,mri,rating,78,2.766
20101,11,2,unrelatedPrior,noWitness,nonDNA,F,mri,rate_punishment,39,3.912
20101,12,32,relatedPrior,isWitness,DNA,F,mri,rating,100,2.929
20101,12,32,relatedPrior,isWitness,DNA,F,mri,rate_punishment,0,0.579
20101,13,18,unrelatedPrior,noWitness,noPhys,F,mri,rating,0,2.313
20101,13,18,unrelatedPrior,noWitness,noPhys,F,mri,rate_punishment,82,4.015
20101,14,22,noPrior,noWitness,nonDNA,F,mri,rating,79,3.062
20101,14,22,noPrior,noWitness,nonDNA,F,mri,rate_punishment,56,3.011
20101,15,16,noPrior,isWitness,DNA,F,mri,rating,95,3.23
20101,15,16,noPrior,isWitness,DNA,F,mri,rate_punishment,97,3.944
20101,16,3,unrelatedPrior,isWitness,DNA,F,mri,rating,87,3.615
20101,16,3,unrelatedPrior,isWitness,DNA,F,mri,rate_punishment,36,3.413
20101,17,14,unrelatedPrior,isWitness,noPhys,F,mri,rating,72,3.417
20101,17,14,unrelatedPrior,isWitness,noPhys,F,mri,rate_punishment,38,3.08
20101,18,25,noPrior,noWitness,DNA,F,mri,rating,12,3.42
20101,18,25,noPrior,noWitness,DNA,F,mri,rate_punishment,20,2.607
20101,19,30,noPrior,noWitness,noPhys,F,mri,rating,0,1.896
20101,19,30,noPrior,noWitness,noPhys,F,mri,rate_punishment,72,4.536
20101,20,26,relatedPrior,isWitness,DNA,F,mri,rating,83,3.695
20101,20,26,relatedPrior,isWitness,DNA,F,mri,rate_punishment,97,5.617
20101,21,33,relatedPrior,isWitness,DNA,F,mri,rating,70,2.906
20101,21,33,relatedPrior,isWitness,DNA,F,mri,rate_punishment,32,4.717
20101,22,23,relatedPrior,noWitness,nonDNA,F,mri,rating,20,3.828
20101,22,23,relatedPrior,noWitness,nonDNA,F,mri,rate_punishment,85,3.5
20101,23,6,relatedPrior,isWitness,nonDNA,F,mri,rating,73,3.51
20101,23,6,relatedPrior,isWitness,nonDNA,F,mri,rate_punishment,34,2.761
20101,24,20,unrelatedPrior,isWitness,noPhys,F,mri,rating,56,5.486
20101,24,20,unrelatedPrior,isWitness,noPhys,F,mri,rate_punishment,86,5.362
20101,25,1,noPrior,noWitness,noPhys,F,mri,rating,13,4.579
20101,25,1,noPrior,noWitness,noPhys,F,mri,rate_punishment,30,2.67
20101,26,7,relatedPrior,isWitness,nonDNA,F,mri,rating,100,2.994
20101,26,7,relatedPrior,isWitness,nonDNA,F,mri,rate_punishment,94,3.34
20101,27,10,relatedPrior,isWitness,DNA,F,mri,rating,82,3.594
20101,27,10,relatedPrior,isWitness,DNA,F,mri,rate_punishment,91,5.187
20101,28,24,noPrior,noWitness,noPhys,F,mri,rating,42,4.427
20101,28,24,noPrior,noWitness,noPhys,F,mri,rate_punishment,32,3.081
20101,29,15,relatedPrior,isWitness,nonDNA,F,mri,rating,85,2.795
20101,29,15,relatedPrior,isWitness,nonDNA,F,mri,rate_punishment,53,2.518
20101,30,8,noPrior,isWitness,nonDNA,F,mri,rating,47,2.722
20101,30,8,noPrior,isWitness,nonDNA,F,mri,rate_punishment,19,2.192
20101,31,9,relatedPrior,noWitness,nonDNA,F,mri,rating,48,3.643
20101,31,9,relatedPrior,noWitness,nonDNA,F,mri,rate_punishment,38,3.206
20101,32,31,unrelatedPrior,noWitness,nonDNA,F,mri,rating,27,3.231
20101,32,31,unrelatedPrior,noWitness,nonDNA,F,mri,rate_punishment,92,4.923
20101,33,11,unrelatedPrior,noWitness,noPhys,F,mri,rating,20,3.119
20101,33,11,unrelatedPrior,noWitness,noPhys,F,mri,rate_punishment,80,4.972
20109,1,3,noPrior,noWitness,nonDNA,F,mri,rating,51,1.662
20109,1,3,noPrior,noWitness,nonDNA,F,mri,rate_punishment,38,2.563
20109,2,29,relatedPrior,noWitness,nonDNA,F,mri,rating,69,1.913
20109,2,29,relatedPrior,noWitness,nonDNA,F,mri,rate_punishment,56,2.329
20109,3,21,unrelatedPrior,noWitness,noPhys,F,mri,rating,24,1.766
20109,3,21,unrelatedPrior,noWitness,noPhys,F,mri,rate_punishment,83,3.06
20109,4,26,relatedPrior,isWitness,noPhys,F,mri,rating,61,1.767
20109,4,26,relatedPrior,isWitness,noPhys,F,mri,rate_punishment,70,2.095
20109,5,31,noPrior,noWitness,nonDNA,F,mri,rating,64,2.579
20109,5,31,noPrior,noWitness,nonDNA,F,mri,rate_punishment,62,2.211
20109,6,12,noPrior,noWitness,noPhys,F,mri,rating,22,1.263
20109,6,12,noPrior,noWitness,noPhys,F,mri,rate_punishment,52,2.328
20109,7,2,unrelatedPrior,isWitness,noPhys,F,mri,rating,46,2.079
20109,7,2,unrelatedPrior,isWitness,noPhys,F,mri,rate_punishment,31,2.344
20109,8,33,noPrior,isWitness,nonDNA,F,mri,rating,77,2.146
20109,8,33,noPrior,isWitness,nonDNA,F,mri,rate_punishment,85,2.461
20109,9,24,relatedPrior,isWitness,nonDNA,F,mri,rating,73,2.129
20109,9,24,relatedPrior,isWitness,nonDNA,F,mri,rate_punishment,45,1.582
20109,10,1,relatedPrior,isWitness,DNA,F,mri,rating,99,2.18
20109,10,1,relatedPrior,isWitness,DNA,F,mri,rate_punishment,25,1.628
20109,11,15,noPrior,isWitness,noPhys,F,mri,rating,53,1.884
20109,11,15,noPrior,isWitness,noPhys,F,mri,rate_punishment,29,2.364
20109,12,14,unrelatedPrior,isWitness,nonDNA,F,mri,rating,98,2.496
20109,12,14,unrelatedPrior,isWitness,nonDNA,F,mri,rate_punishment,94,2.378
20109,13,20,noPrior,isWitness,DNA,F,mri,rating,100,2.48
20109,13,20,noPrior,isWitness,DNA,F,mri,rate_punishment,77,2.177
20109,14,32,noPrior,isWitness,DNA,F,mri,rating,89,2.413
20109,14,32,noPrior,isWitness,DNA,F,mri,rate_punishment,82,2.878
20109,15,17,relatedPrior,noWitness,DNA,F,mri,rating,61,1.729
20109,15,17,relatedPrior,noWitness,DNA,F,mri,rate_punishment,66,3.111
20109,16,13,relatedPrior,isWitness,DNA,F,mri,rating,98,2.513
20109,16,13,relatedPrior,isWitness,DNA,F,mri,rate_punishment,45,2.278
20109,17,19,noPrior,noWitness,DNA,F,mri,rating,76,2.163
20109,17,19,noPrior,noWitness,DNA,F,mri,rate_punishment,43,2.343
20109,18,28,relatedPrior,noWitness,nonDNA,F,mri,rating,72,2.366
20109,18,28,relatedPrior,noWitness,nonDNA,F,mri,rate_punishment,77,2.327
20109,19,27,unrelatedPrior,isWitness,noPhys,F,mri,rating,42,2.113
20109,19,27,unrelatedPrior,isWitness,noPhys,F,mri,rate_punishment,29,1.809
20109,20,11,noPrior,isWitness,noPhys,F,mri,rating,67,1.879
20109,20,11,noPrior,isWitness,noPhys,F,mri,rate_punishment,89,2.195
20109,21,30,relatedPrior,isWitness,noPhys,F,mri,rating,50,1.662
20109,21,30,relatedPrior,isWitness,noPhys,F,mri,rate_punishment,53,1.661
20109,22,25,relatedPrior,isWitness,noPhys,F,mri,rating,58,2.13
20109,22,25,relatedPrior,isWitness,noPhys,F,mri,rate_punishment,36,2.111
20109,23,10,noPrior,isWitness,DNA,F,mri,rating,100,2.48
20109,23,10,noPrior,isWitness,DNA,F,mri,rate_punishment,98,2.356
20109,24,7,relatedPrior,isWitness,nonDNA,F,mri,rating,95,2.732
20109,24,7,relatedPrior,isWitness,nonDNA,F,mri,rate_punishment,95,2.927
20109,25,8,unrelatedPrior,isWitness,nonDNA,F,mri,rating,83,2.163
20109,25,8,unrelatedPrior,isWitness,nonDNA,F,mri,rate_punishment,25,1.811
20109,26,23,unrelatedPrior,noWitness,nonDNA,F,mri,rating,98,2.713
20109,26,23,unrelatedPrior,noWitness,nonDNA,F,mri,rate_punishment,99,2.844
20109,27,4,relatedPrior,noWitness,DNA,F,mri,rating,92,2.23
20109,27,4,relatedPrior,noWitness,DNA,F,mri,rate_punishment,13,1.694
20109,28,5,relatedPrior,noWitness,nonDNA,F,mri,rating,95,2.596
20109,28,5,relatedPrior,noWitness,nonDNA,F,mri,rate_punishment,100,2.295
20109,29,9,unrelatedPrior,noWitness,nonDNA,F,mri,rating,82,2.286
20109,29,9,unrelatedPrior,noWitness,nonDNA,F,mri,rate_punishment,19,1.332
20109,30,18,noPrior,noWitness,DNA,F,mri,rating,85,2.547
20109,30,18,noPrior,noWitness,DNA,F,mri,rate_punishment,41,2.16
20109,31,22,unrelatedPrior,noWitness,noPhys,F,mri,rating,59,2.212
20109,31,22,unrelatedPrior,noWitness,noPhys,F,mri,rate_punishment,49,1.709
20109,32,6,unrelatedPrior,isWitness,noPhys,F,mri,rating,65,2.303
20109,32,6,unrelatedPrior,isWitness,noPhys,F,mri,rate_punishment,28,1.163
20109,33,16,noPrior,isWitness,noPhys,F,mri,rating,54,2.563
20109,33,16,noPrior,isWitness,noPhys,F,mri,rate_punishment,100,2.512
20036,1,21,unrelatedPrior,isWitness,nonDNA,F,mri,rating,69,3.428
20036,1,21,unrelatedPrior,isWitness,nonDNA,F,mri,rate_punishment,64,4.107
20036,2,14,noPrior,noWitness,nonDNA,F,mri,rating,65,3.279
20036,2,14,noPrior,noWitness,nonDNA,F,mri,rate_punishment,33,3.095
20036,3,28,relatedPrior,isWitness,nonDNA,F,mri,rating,72,3.213
20036,3,28,relatedPrior,isWitness,nonDNA,F,mri,rate_punishment,86,3.963
20036,4,26,relatedPrior,noWitness,nonDNA,F,mri,rating,47,4.746
20036,4,26,relatedPrior,noWitness,nonDNA,F,mri,rate_punishment,94,4.394
20036,5,5,relatedPrior,isWitness,noPhys,F,mri,rating,54,3.678
20036,5,5,relatedPrior,isWitness,noPhys,F,mri,rate_punishment,92,5.095
20036,6,18,unrelatedPrior,isWitness,noPhys,F,mri,rating,31,2.262
20036,6,18,unrelatedPrior,isWitness,noPhys,F,mri,rate_punishment,37,2.076
20036,7,2,relatedPrior,isWitness,DNA,F,mri,rating,40,3.662
20036,7,2,relatedPrior,isWitness,DNA,F,mri,rate_punishment,11,3.111
20036,8,30,noPrior,noWitness,nonDNA,F,mri,rating,23,2.461
20036,8,30,noPrior,noWitness,nonDNA,F,mri,rate_punishment,99,2.91
20036,9,20,relatedPrior,noWitness,DNA,F,mri,rating,79,2.846
20036,9,20,relatedPrior,noWitness,DNA,F,mri,rate_punishment,86,4.411
20036,10,10,noPrior,noWitness,noPhys,F,mri,rating,12,2.366
20036,10,10,noPrior,noWitness,noPhys,F,mri,rate_punishment,62,3.258
20036,11,3,unrelatedPrior,noWitness,nonDNA,F,mri,rating,13,3.327
20036,11,3,unrelatedPrior,noWitness,nonDNA,F,mri,rate_punishment,10,2.156
20036,12,4,noPrior,isWitness,DNA,F,mri,rating,82,4.679
20036,12,4,noPrior,isWitness,DNA,F,mri,rate_punishment,22,2.81
20036,13,16,noPrior,isWitness,nonDNA,F,mri,rating,81,2.678
20036,13,16,noPrior,isWitness,nonDNA,F,mri,rate_punishment,89,3.677
20036,14,24,noPrior,isWitness,DNA,F,mri,rating,82,2.397
20036,14,24,noPrior,isWitness,DNA,F,mri,rate_punishment,68,4.164
20036,15,32,noPrior,noWitness,DNA,F,mri,rating,47,3.766
20036,15,32,noPrior,noWitness,DNA,F,mri,rate_punishment,76,4.127
20036,16,33,unrelatedPrior,noWitness,nonDNA,F,mri,rating,48,1.779
20036,16,33,unrelatedPrior,noWitness,nonDNA,F,mri,rate_punishment,37,1.514
20036,17,1,relatedPrior,isWitness,noPhys,F,mri,rating,51,2.427
20036,17,1,relatedPrior,isWitness,noPhys,F,mri,rate_punishment,19,3.395
20036,18,19,noPrior,noWitness,noPhys,F,mri,rating,0,2.379
20036,18,19,noPrior,noWitness,noPhys,F,mri,rate_punishment,36,3.428
20036,19,8,unrelatedPrior,isWitness,noPhys,F,mri,rating,31,2.275
20036,19,8,unrelatedPrior,isWitness,noPhys,F,mri,rate_punishment,15,1.65
20036,20,12,relatedPrior,isWitness,nonDNA,F,mri,rating,76,3.06
20036,20,12,relatedPrior,isWitness,nonDNA,F,mri,rate_punishment,25,2.093
20036,21,25,unrelatedPrior,isWitness,DNA,F,mri,rating,44,2.579
20036,21,25,unrelatedPrior,isWitness,DNA,F,mri,rate_punishment,22,1.411
20036,22,15,noPrior,isWitness,nonDNA,F,mri,rating,38,4.211
20036,22,15,noPrior,isWitness,nonDNA,F,mri,rate_punishment,13,3.277
20036,23,17,relatedPrior,isWitness,noPhys,F,mri,rating,92,2.843
20036,23,17,relatedPrior,isWitness,noPhys,F,mri,rate_punishment,85,2.909
20036,24,31,unrelatedPrior,noWitness,DNA,F,mri,rating,81,4.68
20036,24,31,unrelatedPrior,noWitness,DNA,F,mri,rate_punishment,86,3.225
20036,25,22,relatedPrior,noWitness,noPhys,F,mri,rating,86,2.578
20036,25,22,relatedPrior,noWitness,noPhys,F,mri,rate_punishment,61,2.878
20036,26,9,noPrior,noWitness,noPhys,F,mri,rating,22,1.694
20036,26,9,noPrior,noWitness,noPhys,F,mri,rate_punishment,40,1.918
20036,27,7,noPrior,isWitness,nonDNA,F,mri,rating,77,3.711
20036,27,7,noPrior,isWitness,nonDNA,F,mri,rate_punishment,97,3.093
20036,28,13,unrelatedPrior,isWitness,nonDNA,F,mri,rating,100,2.473
20036,28,13,unrelatedPrior,isWitness,nonDNA,F,mri,rate_punishment,36,3.743
20036,29,11,relatedPrior,isWitness,nonDNA,F,mri,rating,92,2.786
20036,29,11,relatedPrior,isWitness,nonDNA,F,mri,rate_punishment,75,4.744
20036,30,23,unrelatedPrior,noWitness,noPhys,F,mri,rating,29,4.979
20036,30,23,unrelatedPrior,noWitness,noPhys,F,mri,rate_punishment,56,4.859
20036,31,29,noPrior,noWitness,DNA,F,mri,rating,32,2.129
20036,31,29,noPrior,noWitness,DNA,F,mri,rate_punishment,41,2.295
20036,32,6,noPrior,noWitness,noPhys,F,mri,rating,26,2.179
20036,32,6,noPrior,noWitness,noPhys,F,mri,rate_punishment,20,2.127
20036,33,27,unrelatedPrior,isWitness,DNA,F,mri,rating,81,3.045
20036,33,27,unrelatedPrior,isWitness,DNA,F,mri,rate_punishment,19,1.677
20031,1,20,noPrior,isWitness,noPhys,F,mri,rating,21,3.878
20031,1,20,noPrior,isWitness,noPhys,F,mri,rate_punishment,86,4.988
20031,2,8,noPrior,noWitness,DNA,T,mri,rating,77,5.394
20031,2,8,noPrior,noWitness,DNA,T,mri,rate_punishment,61,6
20031,3,15,unrelatedPrior,noWitness,noPhys,F,mri,rating,66,2.645
20031,3,15,unrelatedPrior,noWitness,noPhys,F,mri,rate_punishment,55,1.657
20031,4,21,noPrior,noWitness,nonDNA,F,mri,rating,62,3.145
20031,4,21,noPrior,noWitness,nonDNA,F,mri,rate_punishment,86,3.092
20031,5,11,unrelatedPrior,noWitness,noPhys,F,mri,rating,53,2.41
20031,5,11,unrelatedPrior,noWitness,noPhys,F,mri,rate_punishment,93,2.414
20031,6,12,relatedPrior,isWitness,nonDNA,F,mri,rating,91,2.512
20031,6,12,relatedPrior,isWitness,nonDNA,F,mri,rate_punishment,49,5.059
20031,7,22,unrelatedPrior,noWitness,DNA,F,mri,rating,65,2.162
20031,7,22,unrelatedPrior,noWitness,DNA,F,mri,rate_punishment,60,1.86
20031,8,9,relatedPrior,isWitness,DNA,F,mri,rating,95,2.312
20031,8,9,relatedPrior,isWitness,DNA,F,mri,rate_punishment,63,3.66
20031,9,4,unrelatedPrior,isWitness,nonDNA,F,mri,rating,82,2.162
20031,9,4,unrelatedPrior,isWitness,nonDNA,F,mri,rate_punishment,57,2.35
20031,10,3,unrelatedPrior,noWitness,DNA,F,mri,rating,50,1.812
20031,10,3,unrelatedPrior,noWitness,DNA,F,mri,rate_punishment,42,2.092
20031,11,1,unrelatedPrior,noWitness,noPhys,F,mri,rating,21,2.229
20031,11,1,unrelatedPrior,noWitness,noPhys,F,mri,rate_punishment,17,3.658
20031,12,16,relatedPrior,isWitness,noPhys,F,mri,rating,78,2.128
20031,12,16,relatedPrior,isWitness,noPhys,F,mri,rate_punishment,92,2.674
20031,13,33,unrelatedPrior,isWitness,DNA,F,mri,rating,72,2.412
20031,13,33,unrelatedPrior,isWitness,DNA,F,mri,rate_punishment,92,2.709
20031,14,7,noPrior,isWitness,noPhys,F,mri,rating,74,3.863
20031,14,7,noPrior,isWitness,noPhys,F,mri,rate_punishment,78,2.576
20031,15,23,noPrior,noWitness,DNA,F,mri,rating,75,4.262
20031,15,23,noPrior,noWitness,DNA,F,mri,rate_punishment,95,2.877
20031,16,27,relatedPrior,noWitness,DNA,F,mri,rating,52,2.271
20031,16,27,relatedPrior,noWitness,DNA,F,mri,rate_punishment,32,1.174
20031,17,10,unrelatedPrior,isWitness,noPhys,F,mri,rating,65,1.73
20031,17,10,unrelatedPrior,isWitness,noPhys,F,mri,rate_punishment,0,1.127
20031,18,13,relatedPrior,isWitness,nonDNA,F,mri,rating,100,3.365
20031,18,13,relatedPrior,isWitness,nonDNA,F,mri,rate_punishment,56,2.519
20031,19,5,relatedPrior,isWitness,DNA,F,mri,rating,94,3.295
20031,19,5,relatedPrior,isWitness,DNA,F,mri,rate_punishment,93,3.21
20031,20,26,unrelatedPrior,isWitness,noPhys,F,mri,rating,59,2.845
20031,20,26,unrelatedPrior,isWitness,noPhys,F,mri,rate_punishment,84,2.391
20031,21,31,unrelatedPrior,isWitness,noPhys,F,mri,rating,59,3.01
20031,21,31,unrelatedPrior,isWitness,noPhys,F,mri,rate_punishment,72,2.364
20031,22,18,relatedPrior,isWitness,nonDNA,F,mri,rating,100,2.859
20031,22,18,relatedPrior,isWitness,nonDNA,F,mri,rate_punishment,69,2.157
20031,23,25,unrelatedPrior,noWitness,DNA,F,mri,rating,75,2.555
20031,23,25,unrelatedPrior,noWitness,DNA,F,mri,rate_punishment,53,1.994
20031,24,19,relatedPrior,noWitness,noPhys,F,mri,rating,45,1.828
20031,24,19,relatedPrior,noWitness,noPhys,F,mri,rate_punishment,53,1.643
20031,25,17,relatedPrior,noWitness,noPhys,F,mri,rating,52,1.829
20031,25,17,relatedPrior,noWitness,noPhys,F,mri,rate_punishment,80,4.027
20031,26,29,relatedPrior,noWitness,DNA,F,mri,rating,73,3.027
20031,26,29,relatedPrior,noWitness,DNA,F,mri,rate_punishment,65,4.327
20031,27,6,unrelatedPrior,isWitness,DNA,F,mri,rating,80,3.279
20031,27,6,unrelatedPrior,isWitness,DNA,F,mri,rate_punishment,37,1.394
20031,28,32,unrelatedPrior,noWitness,nonDNA,F,mri,rating,86,2.365
20031,28,32,unrelatedPrior,noWitness,nonDNA,F,mri,rate_punishment,86,3.241
20031,29,2,relatedPrior,isWitness,nonDNA,F,mri,rating,91,3.629
20031,29,2,relatedPrior,isWitness,nonDNA,F,mri,rate_punishment,48,2.144
20031,30,28,noPrior,noWitness,nonDNA,F,mri,rating,60,2.845
20031,30,28,noPrior,noWitness,nonDNA,F,mri,rate_punishment,100,3.393
20031,31,30,unrelatedPrior,isWitness,nonDNA,F,mri,rating,90,2.746
20031,31,30,unrelatedPrior,isWitness,nonDNA,F,mri,rate_punishment,81,2.176
20031,32,24,unrelatedPrior,noWitness,noPhys,F,mri,rating,58,4.022
20031,32,24,unrelatedPrior,noWitness,noPhys,F,mri,rate_punishment,57,1.942
20031,33,14,noPrior,isWitness,noPhys,F,mri,rating,65,3.189
20031,33,14,noPrior,isWitness,noPhys,F,mri,rate_punishment,87,2.577
20048,1,33,unrelatedPrior,isWitness,nonDNA,T,mri,rating,0,6
20048,1,33,unrelatedPrior,isWitness,nonDNA,T,mri,rate_punishment,0,6
20048,2,7,noPrior,noWitness,DNA,T,mri,rating,58,6
20048,2,7,noPrior,noWitness,DNA,T,mri,rate_punishment,50,3.559
20048,3,29,relatedPrior,noWitness,noPhys,F,mri,rating,34,3.396
20048,3,29,relatedPrior,noWitness,noPhys,F,mri,rate_punishment,39,5.678
20048,4,12,unrelatedPrior,isWitness,noPhys,F,mri,rating,13,3.729
20048,4,12,unrelatedPrior,isWitness,noPhys,F,mri,rate_punishment,31,4.342
20048,5,1,noPrior,noWitness,nonDNA,F,mri,rating,12,3.228
20048,5,1,noPrior,noWitness,nonDNA,F,mri,rate_punishment,8,3.901
20048,6,30,relatedPrior,noWitness,DNA,T,mri,rating,37,3.284
20048,6,30,relatedPrior,noWitness,DNA,T,mri,rate_punishment,68,6
20048,7,15,noPrior,noWitness,DNA,F,mri,rating,32,2.378
20048,7,15,noPrior,noWitness,DNA,F,mri,rate_punishment,21,1.994
20048,8,18,noPrior,noWitness,nonDNA,F,mri,rating,24,3.113
20048,8,18,noPrior,noWitness,nonDNA,F,mri,rate_punishment,85,3.978
20048,9,19,relatedPrior,noWitness,nonDNA,F,mri,rating,43,3.038
20048,9,19,relatedPrior,noWitness,nonDNA,F,mri,rate_punishment,57,3.286
20048,10,25,relatedPrior,isWitness,DNA,F,mri,rating,94,2.463
20048,10,25,relatedPrior,isWitness,DNA,F,mri,rate_punishment,54,3.844
20048,11,24,noPrior,noWitness,DNA,F,mri,rating,20,1.728
20048,11,24,noPrior,noWitness,DNA,F,mri,rate_punishment,48,4.178
20048,12,26,noPrior,noWitness,nonDNA,F,mri,rating,13,1.48
20048,12,26,noPrior,noWitness,nonDNA,F,mri,rate_punishment,94,3.293
20048,13,28,relatedPrior,noWitness,DNA,F,mri,rating,21,2.78
20048,13,28,relatedPrior,noWitness,DNA,F,mri,rate_punishment,0,0.795
20048,14,11,unrelatedPrior,noWitness,noPhys,F,mri,rating,14,2.163
20048,14,11,unrelatedPrior,noWitness,noPhys,F,mri,rate_punishment,84,2.778
20048,15,3,relatedPrior,noWitness,DNA,F,mri,rating,16,1.863
20048,15,3,relatedPrior,noWitness,DNA,F,mri,rate_punishment,23,3.644
20048,16,10,noPrior,isWitness,noPhys,F,mri,rating,9,2.412
20048,16,10,noPrior,isWitness,noPhys,F,mri,rate_punishment,94,3.562
20048,17,17,unrelatedPrior,isWitness,DNA,F,mri,rating,62,2.413
20048,17,17,unrelatedPrior,isWitness,DNA,F,mri,rate_punishment,94,2.944
20048,18,21,unrelatedPrior,isWitness,nonDNA,F,mri,rating,78,2.913
20048,18,21,unrelatedPrior,isWitness,nonDNA,F,mri,rate_punishment,95,3.277
20048,19,23,relatedPrior,noWitness,DNA,F,mri,rating,34,2.572
20048,19,23,relatedPrior,noWitness,DNA,F,mri,rate_punishment,86,3.558
20048,20,31,unrelatedPrior,isWitness,noPhys,F,mri,rating,22,2.046
20048,20,31,unrelatedPrior,isWitness,noPhys,F,mri,rate_punishment,80,3.278
20048,21,6,unrelatedPrior,isWitness,DNA,F,mri,rating,50,2.891
20048,21,6,unrelatedPrior,isWitness,DNA,F,mri,rate_punishment,28,3.856
20048,22,16,relatedPrior,noWitness,DNA,F,mri,rating,59,2.496
20048,22,16,relatedPrior,noWitness,DNA,F,mri,rate_punishment,93,2.942
19933,1,23,relatedPrior,noWitness,DNA,F,mri,rating,74,2.628
19933,1,23,relatedPrior,noWitness,DNA,F,mri,rate_punishment,57,4.858
19933,2,12,relatedPrior,noWitness,nonDNA,F,mri,rating,42,2.578
19933,2,12,relatedPrior,noWitness,nonDNA,F,mri,rate_punishment,10,5.01
19933,3,7,unrelatedPrior,isWitness,DNA,F,mri,rating,81,3.095
19933,3,7,unrelatedPrior,isWitness,DNA,F,mri,rate_punishment,53,4.125
19933,4,24,relatedPrior,noWitness,nonDNA,F,mri,rating,91,2.495
19933,4,24,relatedPrior,noWitness,nonDNA,F,mri,rate_punishment,21,2.294
19933,5,13,unrelatedPrior,isWitness,noPhys,F,mri,rating,16,2.862
19933,5,13,unrelatedPrior,isWitness,noPhys,F,mri,rate_punishment,24,5.009
19933,6,8,noPrior,isWitness,noPhys,F,mri,rating,49,2.057
19933,6,8,noPrior,isWitness,noPhys,F,mri,rate_punishment,13,3.824
19933,7,20,unrelatedPrior,noWitness,noPhys,F,mri,rating,0,1.699
19933,7,20,unrelatedPrior,noWitness,noPhys,F,mri,rate_punishment,74,3.659
19933,8,11,unrelatedPrior,noWitness,DNA,F,mri,rating,65,2.668
19933,8,11,unrelatedPrior,noWitness,DNA,F,mri,rate_punishment,93,4.744
19933,9,5,relatedPrior,noWitness,DNA,F,mri,rating,73,2.695
19933,9,5,relatedPrior,noWitness,DNA,F,mri,rate_punishment,100,2.791
19933,10,6,noPrior,noWitness,noPhys,F,mri,rating,5,2.428
19933,10,6,noPrior,noWitness,noPhys,F,mri,rate_punishment,9,2.459
19933,11,16,relatedPrior,noWitness,noPhys,F,mri,rating,14,1.463
19933,11,16,relatedPrior,noWitness,noPhys,F,mri,rate_punishment,100,3.974
19933,12,32,noPrior,noWitness,nonDNA,F,mri,rating,71,2.746
19933,12,32,noPrior,noWitness,nonDNA,F,mri,rate_punishment,72,2.108
19933,13,3,unrelatedPrior,isWitness,nonDNA,F,mri,rating,88,2.946
19933,13,3,unrelatedPrior,isWitness,nonDNA,F,mri,rate_punishment,13,2.141
19933,14,1,unrelatedPrior,noWitness,noPhys,F,mri,rating,0,3.313
19933,14,1,unrelatedPrior,noWitness,noPhys,F,mri,rate_punishment,0,1.378
19933,15,26,relatedPrior,noWitness,nonDNA,F,mri,rating,58,3.88
19933,15,26,relatedPrior,noWitness,nonDNA,F,mri,rate_punishment,100,3.394
19933,16,29,unrelatedPrior,isWitness,nonDNA,F,mri,rating,66,2.13
19933,16,29,unrelatedPrior,isWitness,nonDNA,F,mri,rate_punishment,54,1.792
19933,17,18,noPrior,isWitness,nonDNA,F,mri,rating,62,2.429
19933,17,18,noPrior,isWitness,nonDNA,F,mri,rate_punishment,45,2.964
19933,18,30,relatedPrior,noWitness,noPhys,F,mri,rating,66,5.41
19933,18,30,relatedPrior,noWitness,noPhys,F,mri,rate_punishment,37,1.86
19933,19,17,noPrior,noWitness,nonDNA,F,mri,rating,50,2.128
19933,19,17,noPrior,noWitness,nonDNA,F,mri,rate_punishment,64,1.994
19933,20,28,relatedPrior,isWitness,nonDNA,T,mri,rating,51,4.212
19933,20,28,relatedPrior,isWitness,nonDNA,T,mri,rate_punishment,0,6
19933,21,22,unrelatedPrior,isWitness,nonDNA,F,mri,rating,77,2.426
19933,21,22,unrelatedPrior,isWitness,nonDNA,F,mri,rate_punishment,19,1.139
19933,22,27,unrelatedPrior,isWitness,noPhys,F,mri,rating,23,3.23
19933,22,27,unrelatedPrior,isWitness,noPhys,F,mri,rate_punishment,11,2.641
19933,23,10,noPrior,isWitness,DNA,F,mri,rating,89,3.062
19933,23,10,noPrior,isWitness,DNA,F,mri,rate_punishment,89,3.078
19933,24,14,relatedPrior,noWitness,nonDNA,F,mri,rating,74,2.367
19933,24,14,relatedPrior,noWitness,nonDNA,F,mri,rate_punishment,74,2.726
19933,25,31,unrelatedPrior,noWitness,noPhys,F,mri,rating,14,1.579
19933,25,31,unrelatedPrior,noWitness,noPhys,F,mri,rate_punishment,93,3.709
19933,26,21,relatedPrior,isWitness,DNA,F,mri,rating,39,3.846
19933,26,21,relatedPrior,isWitness,DNA,F,mri,rate_punishment,87,2.677
19933,27,15,unrelatedPrior,noWitness,noPhys,F,mri,rating,31,2.676
19933,27,15,unrelatedPrior,noWitness,noPhys,F,mri,rate_punishment,12,2.126
19933,28,25,noPrior,isWitness,nonDNA,F,mri,rating,4,1.18
19933,28,25,noPrior,isWitness,nonDNA,F,mri,rate_punishment,0,1.441
19933,29,9,relatedPrior,isWitness,nonDNA,F,mri,rating,50,1.663
19933,29,9,relatedPrior,isWitness,nonDNA,F,mri,rate_punishment,22,1.092
19933,30,2,unrelatedPrior,isWitness,noPhys,F,mri,rating,11,1.246
19933,30,2,unrelatedPrior,isWitness,noPhys,F,mri,rate_punishment,26,1.111
19933,31,33,noPrior,noWitness,nonDNA,F,mri,rating,32,1.41
19933,31,33,noPrior,noWitness,nonDNA,F,mri,rate_punishment,47,2.444
19933,32,19,noPrior,noWitness,DNA,F,mri,rating,38,2.646
19933,32,19,noPrior,noWitness,DNA,F,mri,rate_punishment,25,1.111
19933,33,4,noPrior,isWitness,nonDNA,F,mri,rating,59,2.176
